<?xml version="1.0" encoding="UTF-8"?>
<DocumentReference xmlns="http://hl7.org/fhir">
    <id value="pdfa-documentreference5"/>
    <meta>
        <profile value="http://ihe.net/fhir/StructureDefinition/IHE.MHD.Query.Minimal.DocumentReference"/>
    </meta>
    <contained>
        <Practitioner>
            <id value="p1"/>
            <name>
                <family value="Snijder"/>
                <given value="A.F.">
                    <extension url="http://hl7.org/fhir/StructureDefinition/iso21090-EN-qualifier">
                        <valueCode value="IN"/>
                    </extension>
                </given>
            </name>
        </Practitioner>
    </contained>
    <contained>
        <Patient>
            <id value="example-pdfa-kwalificatie2"/>
            <identifier>
                <system value="http://xis.org/fhir/NamingSystem/patientID"/>
                <value value="1000000002"/>
            </identifier>
            <name>
                <use value="official"/>
                <family value="XXX_Schulte"/>
                <given value="Eva">
                    <extension url="http://hl7.org/fhir/StructureDefinition/iso21090-EN-qualifier">
                        <valueCode value="BR"/>
                    </extension>
                </given>
                <given value="E">
                    <extension url="http://hl7.org/fhir/StructureDefinition/iso21090-EN-qualifier">
                        <valueCode value="IN"/>
                    </extension>
                </given>
            </name>
            <gender value="female"/>
            <birthDate value="1964-08-02"/>
            <address>
                <line value="Knolweg 1001">
                    <extension url="http://hl7.org/fhir/StructureDefinition/iso21090-ADXP-streetName">
                        <valueString value="Knolweg"/>
                    </extension>
                    <extension url="http://hl7.org/fhir/StructureDefinition/iso21090-ADXP-houseNumber">
                        <valueString value="1001"/>
                    </extension>
                </line>
                <city value="Stitswerd"/>
                <postalCode value="9999XX"/>
            </address>
        </Patient>
    </contained>
    <masterIdentifier>
        <system value="urn:ietf:rfc:3986"/>
        <value value="urn:oid:1.2.276.0.7230010.3.1.2.1787205428.3024.1522314975.28237798"/>
    </masterIdentifier>
    <identifier>
        <system value="http://xis.org/fhir/NamingSystem/DocumentReferenceID"/>
        <value value="852852"/>
    </identifier>
    <status value="entered-in-error"/>
    <type>
        <coding>
            <system value="http://loinc.org/"/>
            <code value="68626-1"/>
            <display value="Allergy and immunology Discharge summary"/>
        </coding>
    </type>
    <class>
        <coding>
            <system value="http://loinc.org/"/>
            <code value="18842-5"/>
            <display value="Discharge summary"/>
        </coding>
    </class>
    <subject>
        <reference value="#example-pdfa-kwalificatie2"/>
        <display value="Eva XXX_Schulte"/>
    </subject>
    <indexed value="${DATE, T, D, -320}T00:00:00+01:00"/>
    <author>
        <reference value="#p1"/>
        <display value ="A.F. Snijder"/>
    </author>
    <securityLabel>
        <coding>
            <system value="http://hl7.org/fhir/v3/Confidentiality"/>
            <code value="V"/>
            <display value="very restricted"/>
        </coding>
    </securityLabel>
    <content>
        <attachment>
            <contentType value="application/pdf"/>
            <language value="en"/>
            <url value="http://www.ihe.net/uploadedFiles/Documents/ITI/IHE_ITI_Suppl_MHD.pdf"/>
            <title value="Example PDF not in Binary - IHE MDH profile"/>
        </attachment>
    </content>
</DocumentReference>
