<?xml version="1.0" encoding="UTF-8"?>
<DocumentManifest xmlns="http://hl7.org/fhir">
    <id value="pdfa-documentmanifest5"/>
    <meta>
        <profile value="http://ihe.net/fhir/StructureDefinition/IHE.MHD.DocumentManifest"/>
    </meta>
    <contained>
        <Practitioner>
            <id value="p1"/>
            <name>
                <family value="Janssen"/>
                <given value="A.">
                    <extension url="http://hl7.org/fhir/StructureDefinition/iso21090-EN-qualifier">
                        <valueCode value="IN"/>
                    </extension>
                </given>
            </name>
        </Practitioner>
    </contained>
    <contained>
        <Patient>
            <id value="example-pdfa-kwalificatie3"/>
            <name>
                <use value="official"/>
                <family value="XXX_Ellens"/>
                <given value="Helene">
                    <extension url="http://hl7.org/fhir/StructureDefinition/iso21090-EN-qualifier">
                        <valueCode value="BR"/>
                    </extension>
                </given>
                <given value="H">
                    <extension url="http://hl7.org/fhir/StructureDefinition/iso21090-EN-qualifier">
                        <valueCode value="IN"/>
                    </extension>
                </given>
            </name>
            <gender value="female"/>
            <birthDate value="1988-07-03"/>
            <address>
                <line value="Dijkpad 93">
                    <extension url="http://hl7.org/fhir/StructureDefinition/iso21090-ADXP-streetName">
                        <valueString value="Dijkpad"/>
                    </extension>
                    <extension url="http://hl7.org/fhir/StructureDefinition/iso21090-ADXP-houseNumber">
                        <valueString value="93"/>
                    </extension>
                </line>
                <city value="Stitswerd"/>
                <postalCode value="9999WA"/>
            </address>
        </Patient>
    </contained>
	<masterIdentifier>
        <system value="urn:ietf:rfc:3986"/>
        <value value="urn:oid:1.2.276.0.7230010.3.1.2.1787205428.3024.1522314975.260898"/>
    </masterIdentifier>
    <identifier>
        <system value="http://xis.org/fhir/NamingSystem/DocumentReferenceID"/>
        <value value="123459904"/>
    </identifier>
    <status value="current"/> 
    <type>
        <coding>
            <system value="http://snomed.info/sct"/>
            <code value="371535009"/>
            <display value="overdrachtsverslag"/>
        </coding>
    </type>
    <subject>
        <reference value="#example-pdfa-kwalificatie3"/>
        <display value="Helene XXX_Ellens"/>
    </subject>
    <created value="${DATE, T, D, -0}T00:00:00+01:00"/>
    <author>
        <reference value="#p1"/>
        <display value="A. Janssen"/>
    </author>
    <source value="http://pgo.org/example"/>
    <description value="Documenten voor doktor Janssen over ontslag en verwijzing vanuit ziekenhuis"/>
    <content>
        <pReference>
            <reference value="DocumentReference/pdfa-documentreference8"/>
            <display value="Kopie van ontslagbrief"/>
        </pReference>
    </content>
    <content>
        <pReference>
            <reference value="DocumentReference/pdfa-documentreference9"/>
            <display value="Verwijsbrief Arts"/>
        </pReference>
    </content>
</DocumentManifest>
