<?xml version="1.0" encoding="UTF-8"?>
<DocumentReference xmlns="http://hl7.org/fhir">
    <id value="pdfa-documentreference7"/>
    <meta>
        <profile value="http://ihe.net/fhir/StructureDefinition/IHE.MHD.Query.Minimal.DocumentReference"/>
    </meta>
    <contained>
        <Practitioner>
            <id value="p1"/>
            <name>
                <family value="De Hoed"/>
            </name>
        </Practitioner>
    </contained>
    <contained>
        <Patient>
            <id value="example-pdfa-kwalificatie2"/>
            <identifier>
                <system value="http://xis.org/fhir/NamingSystem/patientID"/>
                <value value="1000000002"/>
            </identifier>
            <name>
                <use value="official"/>
                <family value="XXX_Schulte"/>
                <given value="Eva">
                    <extension url="http://hl7.org/fhir/StructureDefinition/iso21090-EN-qualifier">
                        <valueCode value="BR"/>
                    </extension>
                </given>
                <given value="E">
                    <extension url="http://hl7.org/fhir/StructureDefinition/iso21090-EN-qualifier">
                        <valueCode value="IN"/>
                    </extension>
                </given>
            </name>
            <gender value="female"/>
            <birthDate value="1964-08-02"/>
            <address>
                <line value="Knolweg 1001">
                    <extension url="http://hl7.org/fhir/StructureDefinition/iso21090-ADXP-streetName">
                        <valueString value="Knolweg"/>
                    </extension>
                    <extension url="http://hl7.org/fhir/StructureDefinition/iso21090-ADXP-houseNumber">
                        <valueString value="1001"/>
                    </extension>
                </line>
                <city value="Stitswerd"/>
                <postalCode value="9999XX"/>
            </address>
        </Patient>
    </contained>
	<masterIdentifier>
        <system value="urn:ietf:rfc:3986"/>
        <value value="urn:oid:1.2.276.0.7230010.3.1.2.1787205428.3024.1522314975.252898"/>
    </masterIdentifier>
    <identifier>
        <system value="http://xis.org/fhir/NamingSystem/DocumentReferenceID"/>
        <value value="6789093343905"/>
    </identifier>
    <status value="superseded"/>
    <type>
        <coding>
            <system value="http://snomed.info/sct"/>
            <code value="11051000146107"/>
            <display value="verwijsbrief"/>
        </coding>
    </type>
    <subject>
        <reference value="#example-pdfa-kwalificatie2"/>
        <display value="Eva XXX_Schulte"/>
    </subject>
    <indexed value="${DATE, T, D, -2}T00:00:00+01:00"/>
    <author>
        <reference value="#p1" />
        <display value ="De Hoed"/>
    </author>
    <description value="Verwijsbrief Arts"/>
    <content>
        <attachment>
            <contentType value="application/pdf"/>
            <language value="nl"/>
            <url value="Binary/pdfa-binary4"/>
            <title value="Verwijsbrief Arts"/>
        </attachment>
    </content>
</DocumentReference>
