<?xml version="1.0" encoding="UTF-8"?>
<DocumentReference xmlns="http://hl7.org/fhir">
    <id value="pdfa-documentreference6"/>
    <meta>
        <profile value="http://ihe.net/fhir/StructureDefinition/IHE.MHD.Query.Minimal.DocumentReference"/>
    </meta>
    <contained>
        <Practitioner>
            <id value="p1"/>
            <name>
                <family value="De Hoed"/>
            </name>
        </Practitioner>
    </contained>
    <contained>
        <Patient>
            <id value="example-pdfa-kwalificatie2"/>
            <identifier>
                <system value="http://xis.org/fhir/NamingSystem/patientID"/>
                <value value="1000000002"/>
            </identifier>
            <name>
                <use value="official"/>
                <family value="XXX_Schulte"/>
                <given value="Eva">
                    <extension url="http://hl7.org/fhir/StructureDefinition/iso21090-EN-qualifier">
                        <valueCode value="BR"/>
                    </extension>
                </given>
                <given value="E">
                    <extension url="http://hl7.org/fhir/StructureDefinition/iso21090-EN-qualifier">
                        <valueCode value="IN"/>
                    </extension>
                </given>
            </name>
            <gender value="female"/>
            <birthDate value="1964-08-02"/>
            <address>
                <line value="Knolweg 1001">
                    <extension url="http://hl7.org/fhir/StructureDefinition/iso21090-ADXP-streetName">
                        <valueString value="Knolweg"/>
                    </extension>
                    <extension url="http://hl7.org/fhir/StructureDefinition/iso21090-ADXP-houseNumber">
                        <valueString value="1001"/>
                    </extension>
                </line>
                <city value="Stitswerd"/>
                <postalCode value="9999XX"/>
            </address>
        </Patient>
    </contained>
    <masterIdentifier>
        <system value="http://xis.org/fhir/NamingSystem/DocumentReferenceID"/>
        <value value="678903434902"/>
    </masterIdentifier>
    <status value="superseded"/>
    <type>
        <coding>
            <system value="http://snomed.info/sct"/>
            <code value="11071000146104"/>
            <display value="ontslagbrief"/>
        </coding>
    </type>
    <subject>
        <reference value="#example-pdfa-kwalificatie2"/>
        <display value="Eva XXX_Schulte"/>
    </subject>
    <indexed value="${DATE, T, D, -1}T00:00:00+01:00"/>
    <author>
        <reference value="#p1" />
        <display value ="De Hoed"/>
    </author>
    <description value="Kopie van ontslagbrief"/>
    <content>
        <attachment>
            <contentType value="application/pdf"/>
            <language value="nl"/>
            <url value="Binary/pdfa-binary3"/>
            <title value="Kopie van ontslagbrief"/>
        </attachment>
    </content>
</DocumentReference>
