<?xml version="1.0" encoding="UTF-8"?>
<Bundle xmlns="http://hl7.org/fhir">
    <id value="MO-XXX-RUYS"/>
    <meta>
        <profile value="http://nictiz.nl/fhir/StructureDefinition/Bundle-MedicationOverview"/>
    </meta>
    <type value="searchset"/>
    <total value="3"/>
    <entry>
        <fullUrl value="http://nictiz.wildfhir.org/fhir3-0-1/List/cc588330-9fa1-4f18-a5d4-6f9bda62e1c9"/>
        <resource>
            <List>
                <id value="cc588330-9fa1-4f18-a5d4-6f9bda62e1c9"/>
                <meta>
                    <profile value="http://nictiz.nl/fhir/StructureDefinition/MedicationOverview"/>
                </meta>
                <extension url="http://nictiz.nl/fhir/StructureDefinition/MedicationOverview-Verification">
                    <extension url="VerificationPatient">
                        <valueBoolean value="false"/>
                    </extension>
                    <extension url="VerificationHealthProfessional">
                        <valueBoolean value="false"/>
                    </extension>
                </extension>
                <status value="current"/>
                <mode value="snapshot"/>
                <code>
                    <coding>
                        <system value="http://snomed.info/sct"/>
                        <code value="11181000146103"/>
                        <display value="Actual medication overview (record artifact)"/>
                    </coding>
                    <text value="Medicatieoverzicht"/>
                </code>
                <subject>
                    <reference value="Patient/XXX-RUYS"/>
                    <display value="R. XXX_Ruys"/>
                </subject>
                <date value="2019-06-17T10:23:27-04:00"/>
                <source>
                    <extension url="http://nictiz.nl/fhir/StructureDefinition/MedicationOverview-SourceOrganization">
                        <valueReference>
                            <reference value="Organization/d5e613"/>
                            <display value="Apotheek de Gulle Gaper"/>
                        </valueReference>
                    </extension>
                    <display value="Apotheek de Gulle Gaper"/>
                </source>
                <emptyReason>
                    <coding>
                        <system value="http://hl7.org/fhir/list-empty-reason"/>
                        <code value="unavailable"/>
                        <display value="Unavailable"/>
                    </coding>
                </emptyReason>
            </List>
        </resource>
    </entry>
    <entry>
        <fullUrl value="http://nictiz.wildfhir.org/fhir3-0-1/Patient/XXX-RUYS"/>
        <resource>
            <Patient>
                <id value="XXX-RUYS"/>
                <meta>
                    <versionId value="42"/>
                    <lastUpdated value="2019-06-17T08:31:10.948-04:00"/>
                    <profile value="http://fhir.nl/fhir/StructureDefinition/nl-core-patient"/>
                </meta>
                <text>
                    <status value="generated"/>
                    <div xmlns="http://www.w3.org/1999/xhtml">
                        <p>
                            <b>Generated Narrative with Details</b>
                        </p>
                        <p>
                            <b>identifier</b>: 13103            
                        </p>
                        <p>
                            <b>name</b>: R. XXX_Ruys             
                        </p>
                        <p>
                            <b>gender</b>: MALE            
                        </p>
                        <p>
                            <b>birthDate</b>: Aug 1, 1964            
                        </p>
                    </div>
                </text>
                <identifier>
                    <system value="urn:oid:2.16.840.1.113883.2.4.3.11.999.77.19829.1"/>
                    <value value="13103"/>
                </identifier>
                <name>
                    <extension url="http://hl7.org/fhir/StructureDefinition/humanname-assembly-order">
                        <valueCode value="NL1"/>
                    </extension>
                    <family value="XXX_Ruys">
                        <extension url="http://hl7.org/fhir/StructureDefinition/humanname-own-name">
                            <valueString value="XXX_Ruys"/>
                        </extension>
                    </family>
                    <given value="R.">
                        <extension url="http://hl7.org/fhir/StructureDefinition/iso21090-EN-qualifier">
                            <valueCode value="IN"/>
                        </extension>
                    </given>
                </name>
                <gender value="male"/>
                <birthDate value="1964-08-01"/>
            </Patient>
        </resource>
    </entry>
    <entry>
        <fullUrl value="http://nictiz.wildfhir.org/fhir3-0-1/Organization/d5e613"/>
        <resource>
            <Organization>
                <id value="d5e613"/>
                <meta>
                    <profile value="http://fhir.nl/fhir/StructureDefinition/nl-core-organization"/>
                </meta>
                <name value="Apotheek de Gulle Gaper"/>
                <telecom>
                    <system value="phone"/>
                    <value value="+31703655424"/>
                    <use value="work"/>
                </telecom>
                <telecom>
                    <system value="email"/>
                    <value value="info@apotheekgullegaper.com"/>
                    <use value="work"/>
                </telecom>
                <address>
                    <line value="Straat 5">
                        <extension url="http://hl7.org/fhir/StructureDefinition/iso21090-ADXP-streetName">
                            <valueString value="Straat"/>
                        </extension>
                        <extension url="http://hl7.org/fhir/StructureDefinition/iso21090-ADXP-houseNumber">
                            <valueString value="5"/>
                        </extension>
                    </line>
                    <city value="Utrecht"/>
                    <postalCode value="1598FG"/>
                </address>
            </Organization>
        </resource>
    </entry>
</Bundle>