<Bundle xmlns="http://hl7.org/fhir">
    <type value="transaction"/>
    <entry>
        <fullUrl value="urn:uuid:d2f4b2f8-a766-4281-b6d1-46209a16a7ab"/>
        <resource>
            <Communication>
                <meta>
                    <profile value="http://nictiz.nl/fhir/StructureDefinition/dwv-PatientCorrectionsCommunication"/>
                </meta>
                <identifier>
                    <system value="urn:oid:2.16.840.1.113883.2.4.3.11.999.​130.1.40"/>
                    <value value="31dba9d5-109e-4baf-a3b2-6cfd457a3ba1"/>
                </identifier>
                <status value="completed"/>
                <category>
                    <coding>
                        <system value="https://hl7.org/fhir/uv/fhir-patient-correction/CodeSystem/PatientCorrectionCommunicationTypes"/>
                        <code value="medRecCxReq"/>
                        <display value="Correction request by the Patient or RelatedPerson"/>
                    </coding>
                </category>
                <subject>
                    <reference value="urn:uuid:83cedc96-edd9-4495-b3e6-8cdbb3a58ecb"/>
                    <type value="Patient"/>
                    <display value="Willemijn Wijziger"/>
                </subject>
                <sent value="${DATE, T, D, -0}T07:35:00+02:00"/>
                <recipient>
                    <reference value="urn:uuid:1f3ddc5f-edb7-4f4d-8aa8-58368287451f"/>
                    <type value="Organization"/>
                    <display value="Erasmus Medisch Centrum"/>
                </recipient>
                <sender>
                    <reference value="urn:uuid:83cedc96-edd9-4495-b3e6-8cdbb3a58ecb"/>
                    <type value="Patient"/>
                    <display value="Willemijn Wijziger"/>
                </sender>
                <payload>
                    <contentString value="Ik heb in mijn dossier gezien dat mijn telefoonnummer niet klopt. Dit wil ik graag gewijzigd hebben. Ik zou graag teruggebeld willen worden."/>
                </payload>
            </Communication>
        </resource>
        <request>
            <method value="POST"/>
            <url value="Communication"/>
        </request>
    </entry>
    <entry>
        <fullUrl value="urn:uuid:83cedc96-edd9-4495-b3e6-8cdbb3a58ecb"/>
        <resource>
            <Patient>
                <meta>
                    <profile value="http://nictiz.nl/fhir/StructureDefinition/nl-core-Patient"/>
                </meta>
                <text>
                    <status value="extensions"/>
                    <div xmlns="http://www.w3.org/1999/xhtml">
                        <div>Id 123456789 (urn:oid:2.16.840.1.113883.2.4.3.11.999.​130.1.135), Willemijn Wijziger</div>
                    </div>
                </text>
                <identifier>
                    <system value="urn:oid:2.16.840.1.113883.2.4.3.11.999.​130.1.135"/>
                    <value value="123456789"/>
                </identifier>
                <name>
                    <use value="official"/>
                    <text value="Willemijn Wijziger"/>
                    <family value="Wijziger">
                        <extension url="http://hl7.org/fhir/StructureDefinition/humanname-own-name">
                            <valueString value="Wijziger"/>
                        </extension>
                    </family>
                    <given value="Willemijn">
                        <extension url="http://hl7.org/fhir/StructureDefinition/iso21090-EN-qualifier">
                            <valueCode value="BR"/>
                        </extension>
                    </given>
                </name>
            </Patient>
        </resource>
        <request>
            <method value="POST"/>
            <url value="Patient"/>
        </request>
    </entry>
    <entry>
        <fullUrl value="urn:uuid:1f3ddc5f-edb7-4f4d-8aa8-58368287451f"/>
        <resource>
            <Organization>
                <meta>
                    <profile value="http://nictiz.nl/fhir/StructureDefinition/nl-core-HealthcareProvider-Organization"/>
                </meta>
                <text>
                    <status value="extensions"/>
                    <div xmlns="http://www.w3.org/1999/xhtml">
                        <table>
                            <caption>Organisatie. Id: 06020806 (AGB-Z)</caption>
                            <tbody>
                                <tr>
                                    <th>Naam</th>
                                    <td>Erasmus Medisch Centrum</td>
                                </tr>
                            </tbody>
                        </table>
                    </div>
                </text>
                <identifier>
                    <system value="http://fhir.nl/fhir/NamingSystem/agb-z"/>
                    <value value="06020806"/>
                </identifier>
                <name value="Erasmus Medisch Centrum"/>
            </Organization>
        </resource>
        <request>
            <method value="POST"/>
            <url value="Organization"/>
        </request>
    </entry>
</Bundle>
