<!--Generated at 2018-11-11T12:04:49.144+01:00-->
<Bundle xmlns="http://hl7.org/fhir">
   <id value="medmij-selfmeasurements-fhir3-0-1-scenario-2-2-bundle"/>
   <type value="batch"/>
   <!--selfmeasurement-patient-kwalificatie1-->
   <entry>
      <fullUrl value="urn:oid:2.16.840.1.113883.2.4.3.11.9999.1"/>
      <resource>
         <Patient>
            <id value="selfmeasurement-patient-kwalificatie1"/>
            <meta>
               <profile value="http://fhir.nl/fhir/StructureDefinition/nl-core-patient"/>
            </meta>
            <text>
               <status value="generated"/>
               <div xmlns="http://www.w3.org/1999/xhtml">ID 1000000001, Paul XXX_Bourgonjee, Man, 1964-08-01, Knolweg 1000 9999XA Stitswerd</div>
            </text>
            <identifier>
               <system value="http://example-xis.org/fhir/NamingSystem/patientID"/>
               <value value="1000000001"/>
            </identifier>
            <name>
               <use value="official"/>
               <family value="XXX_Bourgonjee">
                  <extension url="http://hl7.org/fhir/StructureDefinition/humanname-own-name">
                     <valueString value="XXX_Bourgonjee"/>
                  </extension>
               </family>
               <given value="Paul">
                  <extension url="http://hl7.org/fhir/StructureDefinition/iso21090-EN-qualifier">
                     <valueCode value="BR"/>
                  </extension>
               </given>
               <given value="P">
                  <extension url="http://hl7.org/fhir/StructureDefinition/iso21090-EN-qualifier">
                     <valueCode value="IN"/>
                  </extension>
               </given>
            </name>
            <gender value="male"/>
            <birthDate value="1964-08-01"/>
            <address>
               <line value="Knolweg 1000">
                  <extension url="http://hl7.org/fhir/StructureDefinition/iso21090-ADXP-streetName">
                     <valueString value="Knolweg"/>
                  </extension>
                  <extension url="http://hl7.org/fhir/StructureDefinition/iso21090-ADXP-houseNumber">
                     <valueString value="1000"/>
                  </extension>
               </line>
               <city value="Stitswerd"/>
               <postalCode value="9999XA"/>
            </address>
         </Patient>
      </resource>
      <request>
         <method value="POST"/>
         <url value="Patient"/>
      </request>
   </entry>
   <!--selfmeasurement-practitioner-kwalificatie1-->
   <entry>
      <fullUrl value="urn:oid:2.16.840.1.113883.2.4.3.11.9999.2"/>
      <resource>
         <Practitioner>
            <id value="selfmeasurement-practitioner-kwalificatie1"/>
            <meta>
               <profile value="http://fhir.nl/fhir/StructureDefinition/nl-core-practitioner"/>
            </meta>
            <identifier>
               <system value="http://fhir.nl/fhir/NamingSystem/uzi-nr-pers"/>
               <value value="111111111"/>
            </identifier>
            <identifier>
               <system value="http://fhir.nl/fhir/NamingSystem/agb-z"/>
               <value value="01011234"/>
            </identifier>
            <name>
               <family value="Snijder">
                  <extension url="http://hl7.org/fhir/StructureDefinition/humanname-own-name">
                     <valueString value="Snijder"/>
                  </extension>
               </family>
               <given value="A.F.">
                  <extension url="http://hl7.org/fhir/StructureDefinition/iso21090-EN-qualifier">
                     <valueCode value="IN"/>
                  </extension>
               </given>
            </name>
         </Practitioner>
      </resource>
      <request>
         <method value="POST"/>
         <url value="Practitioner"/>
      </request>
   </entry>
   <!--selfmeasurement-bodyweight-kwalificatie1-->
   <entry>
      <fullUrl value="urn:oid:2.16.840.1.113883.2.4.3.11.9999.3"/>
      <resource>
         <Observation>
            <id value="selfmeasurement-bodyweight-kwalificatie1"/>
            <meta>
               <profile value="http://nictiz.nl/fhir/StructureDefinition/zib-BodyWeight"/>
            </meta>
            <text>
               <status value="generated"/>
               <div xmlns="http://www.w3.org/1999/xhtml">
                  <table>
                     <thead>
                        <tr>
                           <th>GewichtDatumTijd</th>
                           <th>GewichtWaarde</th>
                           <th>Kleding</th>
                           <th>Toelichting</th>
                           <th>Informatiebron</th>
                        </tr>
                     </thead>
                     <tbody>
                        <tr>
                           <td>1-5-2018</td>
                           <td>80,5 kg</td>
                           <td>Lichte kleding/ondergoed</td>
                           <td> </td>
                           <td>Zorgverlener</td>
                        </tr>
                     </tbody>
                  </table>
               </div>
            </text>
            <status value="final"/>
            <category>
               <coding>
                  <system value="http://hl7.org/fhir/observation-category"/>
                  <code value="vital-signs"/>
                  <display value="Vital Signs"/>
               </coding>
            </category>
            <code>
               <coding>
                  <system value="http://loinc.org"/>
                  <code value="29463-7"/>
                  <display value="Body weight"/>
               </coding>
            </code>
            <subject>
               <reference value="urn:oid:2.16.840.1.113883.2.4.3.11.9999.1"/>
               <display value="Paul XXX_Bourgonjee"/>
            </subject>
            <effectiveDateTime value="2018-06-04"/>
            <performer>
               <reference value="urn:oid:2.16.840.1.113883.2.4.3.11.9999.2"/>
               <display value="Dr. A.F. Snijder"/>
            </performer>
            <valueQuantity>
               <value value="80.5"/>
               <unit value="kg"/>
               <system value="http://unitsofmeasure.org"/>
               <code value="kg"/>
            </valueQuantity>
            <component>
               <code>
                  <coding>
                     <system value="http://loinc.org"/>
                     <code value="8352-7"/>
                     <display value="Clothing worn during measure"/>
                  </coding>
               </code>
               <valueCodeableConcept>
                  <coding>
                     <system value="urn:oid:2.16.840.1.113883.2.4.3.11.60.40.4.8.1"/>
                     <code value="MINIMAL"/>
                     <display value="Lichte kleding/ondergoed [Kleding die niet significant het gewicht beïnvloedt.]"/>
                  </coding>
               </valueCodeableConcept>
            </component>
         </Observation>
      </resource>
      <request>
         <method value="POST"/>
         <url value="Observation"/>
      </request>
   </entry>
   <!--selfmeasurement-bodyweight-kwalificatie2-->
   <entry>
      <fullUrl value="urn:oid:2.16.840.1.113883.2.4.3.11.9999.4"/>
      <resource>
         <Observation>
            <id value="selfmeasurement-bodyweight-kwalificatie2"/>
            <meta>
               <profile value="http://nictiz.nl/fhir/StructureDefinition/zib-BodyWeight"/>
            </meta>
            <text>
               <status value="generated"/>
               <div xmlns="http://www.w3.org/1999/xhtml">
                  <table>
                     <thead>
                        <tr>
                           <th>GewichtDatumTijd</th>
                           <th>GewichtWaarde</th>
                           <th>Kleding</th>
                           <th>Toelichting</th>
                           <th>Informatiebron</th>
                        </tr>
                     </thead>
                     <tbody>
                        <tr>
                           <td>2-5-2018</td>
                           <td>80 kg</td>
                           <td>Lichte kleding/ondergoed</td>
                           <td> </td>
                           <td>Zorgverlener</td>
                        </tr>
                     </tbody>
                  </table>
               </div>
            </text>
            <status value="final"/>
            <category>
               <coding>
                  <system value="http://hl7.org/fhir/observation-category"/>
                  <code value="vital-signs"/>
                  <display value="Vital Signs"/>
               </coding>
            </category>
            <code>
               <coding>
                  <system value="http://loinc.org"/>
                  <code value="29463-7"/>
                  <display value="Body weight"/>
               </coding>
            </code>
            <subject>
               <reference value="urn:oid:2.16.840.1.113883.2.4.3.11.9999.1"/>
               <display value="Paul XXX_Bourgonjee"/>
            </subject>
            <effectiveDateTime value="2018-06-11"/>
            <performer>
               <reference value="urn:oid:2.16.840.1.113883.2.4.3.11.9999.2"/>
               <display value="Dr. A.F. Snijder"/>
            </performer>
            <valueQuantity>
               <value value="80"/>
               <unit value="kg"/>
               <system value="http://unitsofmeasure.org"/>
               <code value="kg"/>
            </valueQuantity>
            <component>
               <code>
                  <coding>
                     <system value="http://loinc.org"/>
                     <code value="8352-7"/>
                     <display value="Clothing worn during measure"/>
                  </coding>
               </code>
               <valueCodeableConcept>
                  <coding>
                     <system value="urn:oid:2.16.840.1.113883.2.4.3.11.60.40.4.8.1"/>
                     <code value="UNDRESSED"/>
                     <display value="Zonder kleding."/>
                  </coding>
               </valueCodeableConcept>
            </component>
         </Observation>
      </resource>
      <request>
         <method value="POST"/>
         <url value="Observation"/>
      </request>
   </entry>
</Bundle>
