<?xml version="1.0" encoding="UTF-8"?>
<?xml-model href="http://hl7.org/fhir/STU3/bundle.sch" type="application/xml" schematypens="http://purl.oclc.org/dsdl/schematron"?>
<Bundle xmlns="http://hl7.org/fhir" xmlns:xsi="http://www.w3.org/2001/XMLSchema-instance" xsi:schemaLocation="http://hl7.org/fhir http://hl7.org/fhir/STU3/bundle.xsd">
	<meta>
		<profile value="http://nictiz.nl/fhir/StructureDefinition/Bundle-MedicationOverview"/>
	</meta>
	<type value="searchset"/>
	<total value="28"/>
	<entry>
		<fullUrl value="urn:uuid:529AC507-AC61-11E8-4350-09173F13E4C5"/>
		<resource>
			<Patient>
				<meta>
					<profile value="http://fhir.nl/fhir/StructureDefinition/nl-core-patient"/>
				</meta>
				<identifier>
					<system value="http://fhir.nl/fhir/NamingSystem/bsn"/>
					<value value="999911727"/>
				</identifier>
				<identifier>
					<system value="urn:oid:2.16.840.1.113883.2.4.3.11.999.77.19829.1"/>
					<value value="10009"/>
				</identifier>
				<name>
					<extension url="http://hl7.org/fhir/StructureDefinition/humanname-assembly-order">
						<valueCode value="NL1"/>
					</extension>
					<family value="XXX_Jangi">
						<extension url="http://hl7.org/fhir/StructureDefinition/humanname-own-name">
							<valueString value="XXX_Jangi"/>
						</extension>
					</family>
					<given value="I.">
						<extension url="http://hl7.org/fhir/StructureDefinition/iso21090-EN-qualifier">
							<valueCode value="IN"/>
						</extension>
					</given>
				</name>
				<gender value="male"/>
				<birthDate value="1964-08-02"/>
			</Patient>
		</resource>
	</entry>
	<entry>
		<fullUrl value="urn:uuid:529AC524-AC61-11E8-4350-09173F13E4C5"/>
		<resource>
			<Practitioner>
				<meta>
					<profile value="http://fhir.nl/fhir/StructureDefinition/nl-core-practitioner"/>
				</meta>
				<name>
					<family value="Ternist">
						<extension url="http://hl7.org/fhir/StructureDefinition/humanname-own-name">
							<valueString value="Ternist"/>
						</extension>
					</family>
					<given value="I.">
						<extension url="http://hl7.org/fhir/StructureDefinition/iso21090-EN-qualifier">
							<valueCode value="IN"/>
						</extension>
					</given>
				</name>
			</Practitioner>
		</resource>
	</entry>
	<entry>
		<fullUrl value="urn:uuid:529AC526-AC61-11E8-4350-09173F13E4C5"/>
		<resource>
			<Practitioner>
				<meta>
					<profile value="http://fhir.nl/fhir/StructureDefinition/nl-core-practitioner"/>
				</meta>
				<name>
					<family value="de Vries">
						<extension url="http://hl7.org/fhir/StructureDefinition/humanname-own-prefix">
							<valueString value="de"/>
						</extension>
						<extension url="http://hl7.org/fhir/StructureDefinition/humanname-own-name">
							<valueString value="Vries"/>
						</extension>
					</family>
					<given value="John">
						<extension url="http://hl7.org/fhir/StructureDefinition/iso21090-EN-qualifier">
							<valueCode value="BR"/>
						</extension>
					</given>
				</name>
			</Practitioner>
		</resource>
	</entry>
	<entry>
		<fullUrl value="urn:uuid:529AC528-AC61-11E8-4350-09173F13E4C5"/>
		<resource>
			<Practitioner>
				<meta>
					<profile value="http://fhir.nl/fhir/StructureDefinition/nl-core-practitioner"/>
				</meta>
				<identifier>
					<extension url="http://hl7.org/fhir/StructureDefinition/iso21090-nullFlavor">
						<valueCode value="NI"/>
					</extension>
				</identifier>
				<name>
					<family value="Ternist">
						<extension url="http://hl7.org/fhir/StructureDefinition/humanname-own-name">
							<valueString value="Ternist"/>
						</extension>
					</family>
					<given value="I.">
						<extension url="http://hl7.org/fhir/StructureDefinition/iso21090-EN-qualifier">
							<valueCode value="IN"/>
						</extension>
					</given>
				</name>
			</Practitioner>
		</resource>
	</entry>
	<entry>
		<fullUrl value="urn:oid:2.16.528.1.1007.3.3.01236578"/>
		<resource>
			<Organization>
				<meta>
					<profile value="http://fhir.nl/fhir/StructureDefinition/nl-core-organization"/>
				</meta>
				<identifier>
					<system value="http://fhir.nl/fhir/NamingSystem/ura"/>
					<value value="01236578"/>
				</identifier>
				<name value="Apotheek De Gulle Gaper"/>
			</Organization>
		</resource>
	</entry>
	<entry>
		<fullUrl value="urn:uuid:529AC52B-AC61-11E8-4350-09173F13E4C5"/>
		<resource>
			<Organization>
				<meta>
					<profile value="http://fhir.nl/fhir/StructureDefinition/nl-core-organization"/>
				</meta>
				<name value="Antonius"/>
			</Organization>
		</resource>
	</entry>
	<entry>
		<fullUrl value="urn:uuid:529AC52D-AC61-11E8-4350-09173F13E4C5"/>
		<resource>
			<Organization>
				<meta>
					<profile value="http://fhir.nl/fhir/StructureDefinition/nl-core-organization"/>
				</meta>
				<name value="Apotheek de Gulle Gaper"/>
				<telecom>
					<system value="phone"/>
					<value value="+31703655424"/>
					<use value="work"/>
				</telecom>
				<telecom>
					<system value="email"/>
					<value value="info@apotheekgullegaper.com"/>
					<use value="work"/>
				</telecom>
				<address>
					<line>
						<extension url="http://hl7.org/fhir/StructureDefinition/iso21090-ADXP-streetName">
							<valueString value="Straat"/>
						</extension>
						<extension url="http://hl7.org/fhir/StructureDefinition/iso21090-ADXP-houseNumber">
							<valueString value="5"/>
						</extension>
					</line>
					<city value="Utrecht"/>
					<postalCode value="1598FG"/>
				</address>
			</Organization>
		</resource>
	</entry>
	<entry>
		<fullUrl value="urn:oid:2.16.528.1.1007.3.3.013336578"/>
		<resource>
			<Organization>
				<meta>
					<profile value="http://fhir.nl/fhir/StructureDefinition/nl-core-organization"/>
				</meta>
				<identifier>
					<system value="http://fhir.nl/fhir/NamingSystem/ura"/>
					<value value="013336578"/>
				</identifier>
				<name value="Poliapotheek Antonius"/>
			</Organization>
		</resource>
	</entry>
	<entry>
		<fullUrl value="urn:oid:2.16.528.1.1007.3.3.00001111"/>
		<resource>
			<Organization>
				<meta>
					<profile value="http://fhir.nl/fhir/StructureDefinition/nl-core-organization"/>
				</meta>
				<identifier>
					<system value="http://fhir.nl/fhir/NamingSystem/ura"/>
					<value value="00001111"/>
				</identifier>
				<name value="Huisartsenpraktijk Pulver &amp; Partners"/>
			</Organization>
		</resource>
	</entry>
	<entry>
		<fullUrl value="urn:uuid:529AC531-AC61-11E8-4350-09173F13E4C5"/>
		<resource>
			<PractitionerRole>
				<meta>
					<profile value="http://fhir.nl/fhir/StructureDefinition/nl-core-practitionerrole"/>
				</meta>
				<practitioner>
					<reference value="urn:uuid:529AC524-AC61-11E8-4350-09173F13E4C5"/>
					<display value="I. Ternist"/>
				</practitioner>
				<organization>
					<reference value="urn:uuid:529AC52B-AC61-11E8-4350-09173F13E4C5"/>
					<display value="Antonius"/>
				</organization>
				<specialty>
					<coding>
						<system value="urn:oid:2.16.840.1.113883.2.4.6.7"/>
						<code value="0313"/>
					</coding>
					<text value="Medisch specialisten, inwendige geneeskunde"/>
				</specialty>
			</PractitionerRole>
		</resource>
	</entry>
	<entry>
		<fullUrl value="urn:uuid:529AC533-AC61-11E8-4350-09173F13E4C5"/>
		<resource>
			<PractitionerRole>
				<meta>
					<profile value="http://fhir.nl/fhir/StructureDefinition/nl-core-practitionerrole"/>
				</meta>
				<practitioner>
					<reference value="urn:uuid:529AC526-AC61-11E8-4350-09173F13E4C5"/>
					<display value="John de Vries"/>
				</practitioner>
				<organization>
					<reference value="urn:oid:2.16.528.1.1007.3.3.00001111"/>
					<display value="Huisartsenpraktijk Pulver &amp; Partners"/>
				</organization>
				<specialty>
					<coding>
						<system value="urn:oid:2.16.840.1.113883.2.4.6.7"/>
						<code value="0100"/>
					</coding>
					<text value="Huisartsen, niet nader gespecificeerd"/>
				</specialty>
			</PractitionerRole>
		</resource>
	</entry>
	<entry>
		<fullUrl value="urn:uuid:529AC535-AC61-11E8-4350-09173F13E4C5"/>
		<resource>
			<PractitionerRole>
				<meta>
					<profile value="http://fhir.nl/fhir/StructureDefinition/nl-core-practitionerrole"/>
				</meta>
				<practitioner>
					<reference value="urn:uuid:529AC528-AC61-11E8-4350-09173F13E4C5"/>
					<display value="I. Ternist"/>
				</practitioner>
				<organization>
					<reference value="urn:uuid:529AC52B-AC61-11E8-4350-09173F13E4C5"/>
					<display value="Antonius"/>
				</organization>
				<specialty>
					<coding>
						<system value="urn:oid:2.16.840.1.113883.2.4.6.7"/>
						<code value="0313"/>
					</coding>
					<text value="Medisch specialisten, inwendige geneeskunde"/>
				</specialty>
			</PractitionerRole>
		</resource>
	</entry>
	<entry>
		<fullUrl value="urn:uuid:529AC537-AC61-11E8-4350-09173F13E4C5"/>
		<resource>
			<Medication>
				<meta>
					<profile value="http://nictiz.nl/fhir/StructureDefinition/zib-Product"/>
				</meta>
				<code>
					<text value="Ibuprofen"/>
				</code>
			</Medication>
		</resource>
	</entry>
	<entry>
		<fullUrl value="urn:uuid:529AC539-AC61-11E8-4350-09173F13E4C5"/>
		<resource>
			<MedicationStatement>
				<meta>
					<profile value="http://nictiz.nl/fhir/StructureDefinition/zib-MedicationUse"/>
				</meta>
				<extension url="http://nictiz.nl/fhir/StructureDefinition/zib-MedicationUse-Author">
					<valueReference>
						<reference value="urn:uuid:529AC507-AC61-11E8-4350-09173F13E4C5"/>
						<display value="I. XXX_Jangi"/>
					</valueReference>
				</extension>
				<extension url="http://nictiz.nl/fhir/StructureDefinition/zib-Medication-MedicationTreatment">
					<valueIdentifier>
						<system value="urn:oid:2.16.840.1.113883.2.4.3.11.999.77.1.1"/>
						<value value="MBH_123_1"/>
					</valueIdentifier>
				</extension>
				<extension url="http://nictiz.nl/fhir/StructureDefinition/zib-Medication-CopyIndicator">
					<valueBoolean value="true"/>
				</extension>
				<identifier>
					<system value="urn:oid:2.16.840.1.113883.2.4.3.11.999.77.6.1"/>
					<value value="MBH_123_1_MGB_1"/>
				</identifier>
				<status value="active"/>
				<category>
					<coding>
						<system value="urn:oid:2.16.840.1.113883.2.4.3.11.60.20.77.5.3"/>
						<code value="6"/>
						<display value="Medicatiegebruik"/>
					</coding>
					<text value="Medicatiegebruik"/>
				</category>
				<medicationReference>
					<reference value="urn:uuid:529AC537-AC61-11E8-4350-09173F13E4C5"/>
					<display value="Ibuprofen"/>
				</medicationReference>
				<effectivePeriod>
					<extension url="http://nictiz.nl/fhir/StructureDefinition/zib-MedicationUse-Duration">
						<valueDuration>
							<value value="3"/>
							<unit value="dag"/>
							<system value="http://unitsofmeasure.org"/>
							<code value="d"/>
						</valueDuration>
					</extension>
					<start value="2018-08-13T00:00:00+02:00"/>
				</effectivePeriod>
				<dateAsserted value="2018-08-16T10:57:00+02:00"/>
				<subject>
					<reference value="urn:uuid:529AC507-AC61-11E8-4350-09173F13E4C5"/>
					<display value="I. XXX_Jangi"/>
				</subject>
				<taken value="y"/>
				<reasonNotTaken>
					<extension url="http://hl7.org/fhir/StructureDefinition/iso21090-nullFlavor">
						<valueCode value="OTH"/>
					</extension>
					<text value="Pijn"/>
				</reasonNotTaken>
				<dosage>
					<text value="Vanaf T-3, gedurende 3 dagen, 4 maal per dag 1 tablet"/>
					<timing>
						<repeat>
							<frequency value="4"/>
							<period value="1"/>
							<periodUnit value="d"/>
						</repeat>
					</timing>
					<route>
						<coding>
							<system value="urn:oid:2.16.840.1.113883.2.4.4.9"/>
							<code value="9"/>
						</coding>
						<text value="oraal"/>
					</route>
					<doseQuantity>
						<value value="1"/>
						<unit value="stuk"/>
						<system value="urn:oid:2.16.840.1.113883.2.4.4.1.900.2"/>
						<code value="245"/>
					</doseQuantity>
				</dosage>
			</MedicationStatement>
		</resource>
	</entry>
	<entry>
		<fullUrl value="urn:uuid:529AC53B-AC61-11E8-4350-09173F13E4C5"/>
		<resource>
			<MedicationDispense>
				<meta>
					<profile value="http://nictiz.nl/fhir/StructureDefinition/zib-AdministrationAgreement"/>
				</meta>
				<extension url="http://nictiz.nl/fhir/StructureDefinition/zib-AdministrationAgreement-AuthoredOn">
					<valueDateTime value="2018-08-10T11:55:00+02:00"/>
				</extension>
				<extension url="http://nictiz.nl/fhir/StructureDefinition/zib-Medication-PeriodOfUse">
					<valuePeriod>
						<start value="2018-08-10T00:00:00+02:00"/>
					</valuePeriod>
				</extension>
				<extension url="http://nictiz.nl/fhir/StructureDefinition/zib-Medication-MedicationTreatment">
					<valueIdentifier>
						<system value="urn:oid:2.16.840.1.113883.2.4.3.11.999.77.1.1"/>
						<value value="MBH_123_2"/>
					</valueIdentifier>
				</extension>
				<extension url="http://nictiz.nl/fhir/StructureDefinition/zib-Medication-CopyIndicator">
					<valueBoolean value="true"/>
				</extension>
				<identifier>
					<system value="urn:oid:2.16.840.1.113883.2.4.3.11.999.77.422037009.1"/>
					<value value="MBH_123_2_TA_1"/>
				</identifier>
				<category>
					<coding>
						<system value="http://snomed.info/sct"/>
						<code value="422037009"/>
						<display value="Provider medication administration instructions (procedure)"/>
					</coding>
					<text value="Toedieningsafspraak"/>
				</category>
				<medicationCodeableConcept>
					<coding>
						<system value="urn:oid:2.16.840.1.113883.2.4.4.7"/>
						<code value="400629"/>
					</coding>
					<text value="Emovate zalf 0,5 mg/g"/>
				</medicationCodeableConcept>
				<subject>
					<reference value="urn:uuid:529AC507-AC61-11E8-4350-09173F13E4C5"/>
					<display value="I. XXX_Jangi"/>
				</subject>
				<performer>
					<actor>
						<reference value="urn:oid:2.16.528.1.1007.3.3.01236578"/>
						<display value="Apotheek De Gulle Gaper"/>
					</actor>
				</performer>
				<note>
					<text value="Eczeem oogleden"/>
				</note>
				<dosageInstruction>
					<sequence value="1"/>
					<text value="Vanaf T-6, gedurende 3 weken, 2 maal per dag zalf gedurende 7 dagen, 1 maal per dag zalf gedurende 7 dagen, 3 maal per week zalf gedurende 7 dagen, cutaan"/>
					<timing>
						<repeat>
							<boundsDuration>
								<value value="7"/>
								<unit value="dag"/>
								<system value="http://unitsofmeasure.org"/>
								<code value="d"/>
							</boundsDuration>
							<frequency value="2"/>
							<period value="1"/>
							<periodUnit value="d"/>
						</repeat>
					</timing>
					<route>
						<coding>
							<system value="urn:oid:2.16.840.1.113883.2.4.4.9"/>
							<code value="9"/>
						</coding>
						<text value="oraal"/>
					</route>
				</dosageInstruction>
				<dosageInstruction>
					<sequence value="2"/>
					<text value="Vanaf T-6, gedurende 3 weken, 2 maal per dag zalf gedurende 7 dagen, 1 maal per dag zalf gedurende 7 dagen, 3 maal per week zalf gedurende 7 dagen, cutaan"/>
					<timing>
						<repeat>
							<boundsDuration>
								<value value="7"/>
								<unit value="dag"/>
								<system value="http://unitsofmeasure.org"/>
								<code value="d"/>
							</boundsDuration>
							<frequency value="1"/>
							<period value="1"/>
							<periodUnit value="d"/>
						</repeat>
					</timing>
					<route>
						<coding>
							<system value="urn:oid:2.16.840.1.113883.2.4.4.9"/>
							<code value="9"/>
						</coding>
						<text value="oraal"/>
					</route>
				</dosageInstruction>
				<dosageInstruction>
					<sequence value="3"/>
					<text value="Vanaf T-6, gedurende 3 weken, 2 maal per dag zalf gedurende 7 dagen, 1 maal per dag zalf gedurende 7 dagen, 3 maal per week zalf gedurende 7 dagen, cutaan"/>
					<timing>
						<repeat>
							<boundsDuration>
								<value value="7"/>
								<unit value="dag"/>
								<system value="http://unitsofmeasure.org"/>
								<code value="d"/>
							</boundsDuration>
							<frequency value="3"/>
							<period value="1"/>
							<periodUnit value="wk"/>
						</repeat>
					</timing>
					<route>
						<coding>
							<system value="urn:oid:2.16.840.1.113883.2.4.4.9"/>
							<code value="9"/>
						</coding>
						<text value="oraal"/>
					</route>
				</dosageInstruction>
			</MedicationDispense>
		</resource>
	</entry>
	<entry>
		<fullUrl value="urn:uuid:529AC53D-AC61-11E8-4350-09173F13E4C5"/>
		<resource>
			<MedicationRequest>
				<meta>
					<profile value="http://nictiz.nl/fhir/StructureDefinition/zib-MedicationAgreement"/>
				</meta>
				<extension url="http://nictiz.nl/fhir/StructureDefinition/zib-Medication-PeriodOfUse">
					<valuePeriod>
						<start value="2018-06-17T00:00:00+02:00"/>
					</valuePeriod>
				</extension>
				<extension url="http://nictiz.nl/fhir/StructureDefinition/zib-Medication-MedicationTreatment">
					<valueIdentifier>
						<system value="urn:oid:2.16.840.1.113883.2.4.3.11.999.77.1.1"/>
						<value value="MBH_123_4"/>
					</valueIdentifier>
				</extension>
				<extension url="http://nictiz.nl/fhir/StructureDefinition/zib-Medication-CopyIndicator">
					<valueBoolean value="true"/>
				</extension>
				<identifier>
					<system value="urn:oid:2.16.840.1.113883.2.4.3.11.999.77.16076005.1"/>
					<value value="MBH_123_4_MA_1"/>
				</identifier>
				<intent value="order"/>
				<category>
					<coding>
						<system value="http://snomed.info/sct"/>
						<code value="16076005"/>
						<display value="Prescription (procedure)"/>
					</coding>
					<text value="Medicatieafspraak"/>
				</category>
				<medicationCodeableConcept>
					<coding>
						<system value="urn:oid:2.16.840.1.113883.2.4.4.10"/>
						<code value="121312"/>
					</coding>
					<text value="Insuline glargine 100e/ml injvlst"/>
				</medicationCodeableConcept>
				<subject>
					<reference value="urn:uuid:529AC507-AC61-11E8-4350-09173F13E4C5"/>
					<display value="I. XXX_Jangi"/>
				</subject>
				<authoredOn value="2018-05-08T12:11:00+02:00"/>
				<requester>
					<extension url="http://nictiz.nl/fhir/StructureDefinition/zib-MedicationAgreement-RequesterRole">
						<valueReference>
							<reference value="urn:uuid:529AC531-AC61-11E8-4350-09173F13E4C5"/>
							<display value="I. Ternist || Medisch specialisten, inwendige geneeskunde || Antonius"/>
						</valueReference>
					</extension>
					<agent>
						<reference value="urn:uuid:529AC524-AC61-11E8-4350-09173F13E4C5"/>
						<display value="I. Ternist"/>
					</agent>
				</requester>
				<dosageInstruction>
					<sequence value="1"/>
					<text value="Vanaf T-60, 1 maal per dag 10IE, SUBCUTAAN"/>
					<timing>
						<repeat>
							<frequency value="1"/>
							<period value="1"/>
							<periodUnit value="d"/>
						</repeat>
					</timing>
					<route>
						<coding>
							<system value="urn:oid:2.16.840.1.113883.2.4.4.9"/>
							<code value="21"/>
						</coding>
						<text value="subcutaan"/>
					</route>
					<doseQuantity>
						<value value="10"/>
						<unit value="internationale eenheid"/>
						<system value="urn:oid:2.16.840.1.113883.2.4.4.1.900.2"/>
						<code value="217"/>
					</doseQuantity>
				</dosageInstruction>
			</MedicationRequest>
		</resource>
	</entry>
	<entry>
		<fullUrl value="urn:uuid:529AC543-AC61-11E8-4350-09173F13E4C5"/>
		<resource>
			<MedicationDispense>
				<meta>
					<profile value="http://nictiz.nl/fhir/StructureDefinition/zib-AdministrationAgreement"/>
				</meta>
				<extension url="http://nictiz.nl/fhir/StructureDefinition/zib-AdministrationAgreement-AuthoredOn">
					<valueDateTime value="2018-06-17T15:55:00+02:00"/>
				</extension>
				<extension url="http://nictiz.nl/fhir/StructureDefinition/zib-Medication-PeriodOfUse">
					<valuePeriod>
						<start value="2018-06-17T00:00:00+02:00"/>
					</valuePeriod>
				</extension>
				<extension url="http://nictiz.nl/fhir/StructureDefinition/zib-Medication-MedicationTreatment">
					<valueIdentifier>
						<system value="urn:oid:2.16.840.1.113883.2.4.3.11.999.77.1.1"/>
						<value value="MBH_123_4"/>
					</valueIdentifier>
				</extension>
				<extension url="http://nictiz.nl/fhir/StructureDefinition/zib-Medication-CopyIndicator">
					<valueBoolean value="true"/>
				</extension>
				<identifier>
					<system value="urn:oid:2.16.840.1.113883.2.4.3.11.999.77.422037009.1"/>
					<value value="MBH_123_4_TA_1"/>
				</identifier>
				<category>
					<coding>
						<system value="http://snomed.info/sct"/>
						<code value="422037009"/>
						<display value="Provider medication administration instructions (procedure)"/>
					</coding>
					<text value="Toedieningsafspraak"/>
				</category>
				<medicationCodeableConcept>
					<coding>
						<system value="urn:oid:2.16.840.1.113883.2.4.4.7"/>
						<code value="1859226"/>
					</coding>
					<text value="LANTUS SOLOSTAR INJ 100E/ML PEN 3ML"/>
				</medicationCodeableConcept>
				<subject>
					<reference value="urn:uuid:529AC507-AC61-11E8-4350-09173F13E4C5"/>
					<display value="I. XXX_Jangi"/>
				</subject>
				<performer>
					<actor>
						<reference value="urn:oid:2.16.528.1.1007.3.3.013336578"/>
						<display value="Poliapotheek Antonius"/>
					</actor>
				</performer>
				<authorizingPrescription>
					<identifier>
						<system value="urn:oid:2.16.840.1.113883.2.4.3.11.999.77.16076005.1"/>
						<value value="MBH_123_4_MA_1"/>
					</identifier>
					<display value="relatie naar medicatieafspraak: MBH_123_4_MA_1 || 2.16.840.1.113883.2.4.3.11.999.77.16076005.1"/>
				</authorizingPrescription>
				<dosageInstruction>
					<sequence value="1"/>
					<text value="Vanaf T-60, Elke dag om 9 uur 10IE, subcutaan"/>
					<timing>
						<repeat>
							<timeOfDay value="09:00:00"/>
						</repeat>
					</timing>
					<route>
						<coding>
							<system value="urn:oid:2.16.840.1.113883.2.4.4.9"/>
							<code value="21"/>
						</coding>
						<text value="subcutaan"/>
					</route>
					<doseQuantity>
						<value value="10"/>
						<unit value="internationale eenheid"/>
						<system value="urn:oid:2.16.840.1.113883.2.4.4.1.900.2"/>
						<code value="217"/>
					</doseQuantity>
				</dosageInstruction>
			</MedicationDispense>
		</resource>
	</entry>
	<entry>
		<fullUrl value="urn:uuid:529AC545-AC61-11E8-4350-09173F13E4C5"/>
		<resource>
			<MedicationDispense>
				<meta>
					<profile value="http://nictiz.nl/fhir/StructureDefinition/zib-AdministrationAgreement"/>
				</meta>
				<extension url="http://nictiz.nl/fhir/StructureDefinition/zib-AdministrationAgreement-AuthoredOn">
					<valueDateTime value="2018-07-11T15:55:00+02:00"/>
				</extension>
				<extension url="http://nictiz.nl/fhir/StructureDefinition/zib-Medication-PeriodOfUse">
					<valuePeriod>
						<start value="2018-07-11T00:00:00+02:00"/>
					</valuePeriod>
				</extension>
				<extension url="http://nictiz.nl/fhir/StructureDefinition/zib-MedicationUse-Duration">
					<valueDuration>
						<value value="90"/>
						<unit value="dag"/>
						<system value="http://unitsofmeasure.org"/>
						<code value="d"/>
					</valueDuration>
				</extension>
				<extension url="http://nictiz.nl/fhir/StructureDefinition/zib-Medication-MedicationTreatment">
					<valueIdentifier>
						<system value="urn:oid:2.16.840.1.113883.2.4.3.11.999.77.1.1"/>
						<value value="MBH_123_5"/>
					</valueIdentifier>
				</extension>
				<extension url="http://nictiz.nl/fhir/StructureDefinition/zib-Medication-CopyIndicator">
					<valueBoolean value="true"/>
				</extension>
				<identifier>
					<system value="urn:oid:2.16.840.1.113883.2.4.3.11.999.77.422037009.1"/>
					<value value="MBH_123_5_TA_1"/>
				</identifier>
				<category>
					<coding>
						<system value="http://snomed.info/sct"/>
						<code value="422037009"/>
						<display value="Provider medication administration instructions (procedure)"/>
					</coding>
					<text value="Toedieningsafspraak"/>
				</category>
				<medicationCodeableConcept>
					<coding>
						<system value="urn:oid:2.16.840.1.113883.2.4.4.7"/>
						<code value="2105594"/>
					</coding>
					<text value="PERINDOPRIL TERT-BUTYLAMINE GLENMARK TABLET 8MG"/>
				</medicationCodeableConcept>
				<subject>
					<reference value="urn:uuid:529AC507-AC61-11E8-4350-09173F13E4C5"/>
					<display value="I. XXX_Jangi"/>
				</subject>
				<performer>
					<actor>
						<reference value="urn:oid:2.16.528.1.1007.3.3.013336578"/>
						<display value="Poliapotheek Antonius"/>
					</actor>
				</performer>
				<dosageInstruction>
					<sequence value="1"/>
					<text value="Vanaf T-36, gedurende 90 dagen, 1 maal per dag 1 tablet, oraal"/>
					<timing>
						<repeat>
							<frequency value="1"/>
							<period value="1"/>
							<periodUnit value="d"/>
						</repeat>
					</timing>
					<route>
						<coding>
							<system value="urn:oid:2.16.840.1.113883.2.4.4.9"/>
							<code value="9"/>
						</coding>
						<text value="oraal"/>
					</route>
					<doseQuantity>
						<value value="1"/>
						<unit value="stuk"/>
						<system value="urn:oid:2.16.840.1.113883.2.4.4.1.900.2"/>
						<code value="245"/>
					</doseQuantity>
				</dosageInstruction>
			</MedicationDispense>
		</resource>
	</entry>
	<entry>
		<fullUrl value="urn:uuid:529AC547-AC61-11E8-4350-09173F13E4C5"/>
		<resource>
			<MedicationStatement>
				<meta>
					<profile value="http://nictiz.nl/fhir/StructureDefinition/zib-MedicationUse"/>
				</meta>
				<extension url="http://nictiz.nl/fhir/StructureDefinition/zib-MedicationUse-Author">
					<valueReference>
						<reference value="urn:uuid:529AC507-AC61-11E8-4350-09173F13E4C5"/>
						<display value="I. XXX_Jangi"/>
					</valueReference>
				</extension>
				<extension url="http://nictiz.nl/fhir/StructureDefinition/zib-Medication-MedicationTreatment">
					<valueIdentifier>
						<system value="urn:oid:2.16.840.1.113883.2.4.3.11.999.77.1.1"/>
						<value value="MBH_123_5"/>
					</valueIdentifier>
				</extension>
				<extension url="http://nictiz.nl/fhir/StructureDefinition/zib-Medication-CopyIndicator">
					<valueBoolean value="true"/>
				</extension>
				<identifier>
					<system value="urn:oid:2.16.840.1.113883.2.4.3.11.999.77.6.1"/>
					<value value="MBH_123_5_MGB_1"/>
				</identifier>
				<status value="active"/>
				<category>
					<coding>
						<system value="urn:oid:2.16.840.1.113883.2.4.3.11.60.20.77.5.3"/>
						<code value="6"/>
						<display value="Medicatiegebruik"/>
					</coding>
					<text value="Medicatiegebruik"/>
				</category>
				<medicationCodeableConcept>
					<coding>
						<system value="urn:oid:2.16.840.1.113883.2.4.4.7"/>
						<code value="2105594"/>
					</coding>
					<text value="PERINDOPRIL TERT-BUTYLAMINE GLENMARK TABLET 8MG"/>
				</medicationCodeableConcept>
				<effectivePeriod>
					<start value="2018-07-11T00:00:00+02:00"/>
					<end value="2018-07-13T23:59:00+02:00"/>
				</effectivePeriod>
				<dateAsserted value="2018-07-14T13:58:00+02:00"/>
				<subject>
					<reference value="urn:uuid:529AC507-AC61-11E8-4350-09173F13E4C5"/>
					<display value="I. XXX_Jangi"/>
				</subject>
				<taken value="y"/>
				<reasonNotTaken>
					<coding>
						<system value="urn:oid:2.16.840.1.113883.2.4.3.11.60.20.77.5.2.2"/>
						<code value="7"/>
					</coding>
					<text value="(Mogelijke) bijwerking"/>
				</reasonNotTaken>
				<note>
					<text value="Gestopt vanwege bijwerkingen"/>
				</note>
				<dosage>
					<text value="Vanaf T-36, t/m T-34, 1 maal per dag 1 tablet, oraal"/>
					<timing>
						<repeat>
							<frequency value="1"/>
							<period value="1"/>
							<periodUnit value="d"/>
						</repeat>
					</timing>
					<route>
						<coding>
							<system value="urn:oid:2.16.840.1.113883.2.4.4.9"/>
							<code value="9"/>
						</coding>
						<text value="oraal"/>
					</route>
					<doseQuantity>
						<value value="1"/>
						<unit value="stuk"/>
						<system value="urn:oid:2.16.840.1.113883.2.4.4.1.900.2"/>
						<code value="245"/>
					</doseQuantity>
				</dosage>
			</MedicationStatement>
		</resource>
	</entry>
	<entry>
		<fullUrl value="urn:uuid:529AC549-AC61-11E8-4350-09173F13E4C5"/>
		<resource>
			<MedicationRequest>
				<meta>
					<profile value="http://nictiz.nl/fhir/StructureDefinition/zib-MedicationAgreement"/>
				</meta>
				<extension url="http://nictiz.nl/fhir/StructureDefinition/zib-Medication-PeriodOfUse">
					<valuePeriod>
						<start value="2016-06-18T00:00:00+02:00"/>
					</valuePeriod>
				</extension>
				<extension url="http://nictiz.nl/fhir/StructureDefinition/zib-Medication-MedicationTreatment">
					<valueIdentifier>
						<system value="urn:oid:2.16.840.1.113883.2.4.3.11.999.77.1.1"/>
						<value value="MBH_123_6"/>
					</valueIdentifier>
				</extension>
				<extension url="http://nictiz.nl/fhir/StructureDefinition/zib-Medication-CopyIndicator">
					<valueBoolean value="true"/>
				</extension>
				<identifier>
					<system value="urn:oid:2.16.840.1.113883.2.4.3.11.999.77.16076005.1"/>
					<value value="MBH_123_6_MA_1"/>
				</identifier>
				<intent value="order"/>
				<category>
					<coding>
						<system value="http://snomed.info/sct"/>
						<code value="16076005"/>
						<display value="Prescription (procedure)"/>
					</coding>
					<text value="Medicatieafspraak"/>
				</category>
				<medicationCodeableConcept>
					<coding>
						<system value="urn:oid:2.16.840.1.113883.2.4.4.10"/>
						<code value="67814"/>
					</coding>
					<text value="Simvastine teblet fo 20 mg"/>
				</medicationCodeableConcept>
				<subject>
					<reference value="urn:uuid:529AC507-AC61-11E8-4350-09173F13E4C5"/>
					<display value="I. XXX_Jangi"/>
				</subject>
				<authoredOn value="2016-06-18T09:13:00+02:00"/>
				<requester>
					<extension url="http://nictiz.nl/fhir/StructureDefinition/zib-MedicationAgreement-RequesterRole">
						<valueReference>
							<reference value="urn:uuid:529AC533-AC61-11E8-4350-09173F13E4C5"/>
							<display value="John de Vries || Huisartsen, niet nader gespecificeerd || Huisartsenpraktijk Pulver &amp; Partners"/>
						</valueReference>
					</extension>
					<agent>
						<reference value="urn:uuid:529AC526-AC61-11E8-4350-09173F13E4C5"/>
						<display value="John de Vries"/>
					</agent>
				</requester>
				<dosageInstruction>
					<sequence value="1"/>
					<text value="Vanaf T-728, 1 maal per dag 1 tablet ‘s avonds, oraal"/>
					<timing>
						<repeat>
							<frequency value="1"/>
							<period value="1"/>
							<periodUnit value="d"/>
							<when value="EVE"/>
						</repeat>
					</timing>
					<route>
						<coding>
							<system value="urn:oid:2.16.840.1.113883.2.4.4.9"/>
							<code value="9"/>
						</coding>
						<text value="oraal"/>
					</route>
					<doseQuantity>
						<value value="1"/>
						<unit value="stuk"/>
						<system value="urn:oid:2.16.840.1.113883.2.4.4.1.900.2"/>
						<code value="245"/>
					</doseQuantity>
				</dosageInstruction>
			</MedicationRequest>
		</resource>
	</entry>
	<entry>
		<fullUrl value="urn:uuid:529AC54E-AC61-11E8-4350-09173F13E4C5"/>
		<resource>
			<MedicationDispense>
				<meta>
					<profile value="http://nictiz.nl/fhir/StructureDefinition/zib-AdministrationAgreement"/>
				</meta>
				<extension url="http://nictiz.nl/fhir/StructureDefinition/zib-AdministrationAgreement-AuthoredOn">
					<valueDateTime value="2017-09-27T15:55:00+02:00"/>
				</extension>
				<extension url="http://nictiz.nl/fhir/StructureDefinition/zib-Medication-PeriodOfUse">
					<valuePeriod>
						<start value="2017-09-27T00:00:00+02:00"/>
					</valuePeriod>
				</extension>
				<extension url="http://nictiz.nl/fhir/StructureDefinition/zib-Medication-MedicationTreatment">
					<valueIdentifier>
						<system value="urn:oid:2.16.840.1.113883.2.4.3.11.999.77.1.1"/>
						<value value="MBH_123_6"/>
					</valueIdentifier>
				</extension>
				<extension url="http://nictiz.nl/fhir/StructureDefinition/zib-Medication-CopyIndicator">
					<valueBoolean value="true"/>
				</extension>
				<identifier>
					<system value="urn:oid:2.16.840.1.113883.2.4.3.11.999.77.422037009.1"/>
					<value value="MBH_123_6_TA_1"/>
				</identifier>
				<category>
					<coding>
						<system value="http://snomed.info/sct"/>
						<code value="422037009"/>
						<display value="Provider medication administration instructions (procedure)"/>
					</coding>
					<text value="Toedieningsafspraak"/>
				</category>
				<medicationCodeableConcept>
					<coding>
						<system value="urn:oid:2.16.840.1.113883.2.4.4.7"/>
						<code value="1537792"/>
					</coding>
					<text value="SIMVASTATINE APOTEX TABLET FILMOMHULD 10MG"/>
				</medicationCodeableConcept>
				<subject>
					<reference value="urn:uuid:529AC507-AC61-11E8-4350-09173F13E4C5"/>
					<display value="I. XXX_Jangi"/>
				</subject>
				<performer>
					<actor>
						<reference value="urn:oid:2.16.528.1.1007.3.3.013336578"/>
						<display value="Poliapotheek Antonius"/>
					</actor>
				</performer>
				<authorizingPrescription>
					<identifier>
						<system value="urn:oid:2.16.840.1.113883.2.4.3.11.999.77.16076005.1"/>
						<value value="MBH_123_6_MA_1"/>
					</identifier>
					<display value="relatie naar medicatieafspraak: MBH_123_6_MA_1 || 2.16.840.1.113883.2.4.3.11.999.77.16076005.1"/>
				</authorizingPrescription>
				<dosageInstruction>
					<sequence value="1"/>
					<text value="Vanaf T-323, 1 maal per dag 2 tabletten ‘s avonds, oraal"/>
					<timing>
						<repeat>
							<frequency value="1"/>
							<period value="1"/>
							<periodUnit value="d"/>
							<when value="EVE"/>
						</repeat>
					</timing>
					<route>
						<coding>
							<system value="urn:oid:2.16.840.1.113883.2.4.4.9"/>
							<code value="9"/>
						</coding>
						<text value="oraal"/>
					</route>
					<doseQuantity>
						<value value="2"/>
						<unit value="stuk"/>
						<system value="urn:oid:2.16.840.1.113883.2.4.4.1.900.2"/>
						<code value="245"/>
					</doseQuantity>
				</dosageInstruction>
			</MedicationDispense>
		</resource>
	</entry>
	<entry>
		<fullUrl value="urn:uuid:529AC550-AC61-11E8-4350-09173F13E4C5"/>
		<resource>
			<MedicationStatement>
				<meta>
					<profile value="http://nictiz.nl/fhir/StructureDefinition/zib-MedicationUse"/>
				</meta>
				<extension url="http://nictiz.nl/fhir/StructureDefinition/zib-MedicationUse-Author">
					<valueReference>
						<reference value="urn:uuid:529AC535-AC61-11E8-4350-09173F13E4C5"/>
						<display value="I. Ternist || Medisch specialisten, inwendige geneeskunde || Antonius"/>
					</valueReference>
				</extension>
				<extension url="http://nictiz.nl/fhir/StructureDefinition/zib-Medication-MedicationTreatment">
					<valueIdentifier>
						<system value="urn:oid:2.16.840.1.113883.2.4.3.11.999.77.1.1"/>
						<value value="MBH_123_6"/>
					</valueIdentifier>
				</extension>
				<extension url="http://nictiz.nl/fhir/StructureDefinition/zib-Medication-CopyIndicator">
					<valueBoolean value="true"/>
				</extension>
				<identifier>
					<system value="urn:oid:2.16.840.1.113883.2.4.3.11.999.77.6.1"/>
					<value value="MBH_123_6_MGB_1"/>
				</identifier>
				<status value="active"/>
				<category>
					<coding>
						<system value="urn:oid:2.16.840.1.113883.2.4.3.11.60.20.77.5.3"/>
						<code value="6"/>
						<display value="Medicatiegebruik"/>
					</coding>
					<text value="Medicatiegebruik"/>
				</category>
				<medicationCodeableConcept>
					<coding>
						<system value="urn:oid:2.16.840.1.113883.2.4.4.7"/>
						<code value="1537792"/>
					</coding>
					<text value="SIMVASTATINE APOTEX TABLET FILMOMHULD 10MG"/>
				</medicationCodeableConcept>
				<effectivePeriod>
					<start value="2017-09-27T00:00:00+02:00"/>
				</effectivePeriod>
				<dateAsserted value="2017-12-11T09:00:00+01:00"/>
				<subject>
					<reference value="urn:uuid:529AC507-AC61-11E8-4350-09173F13E4C5"/>
					<display value="I. XXX_Jangi"/>
				</subject>
				<taken value="y"/>
				<note>
					<text value="Patiënt gebruikt niet volgens voorschrift"/>
				</note>
				<dosage>
					<text value="Vanaf T-36, t/m T-34, 1 maal per dag 1 tablet, oraal"/>
					<timing>
						<repeat>
							<frequency value="1"/>
							<period value="1"/>
							<periodUnit value="d"/>
							<when value="EVE"/>
						</repeat>
					</timing>
					<route>
						<coding>
							<system value="urn:oid:2.16.840.1.113883.2.4.4.9"/>
							<code value="9"/>
						</coding>
						<text value="oraal"/>
					</route>
					<doseQuantity>
						<value value="1"/>
						<unit value="stuk"/>
						<system value="urn:oid:2.16.840.1.113883.2.4.4.1.900.2"/>
						<code value="245"/>
					</doseQuantity>
				</dosage>
			</MedicationStatement>
		</resource>
	</entry>
	<entry>
		<fullUrl value="urn:uuid:529AC552-AC61-11E8-4350-09173F13E4C5"/>
		<resource>
			<MedicationStatement>
				<meta>
					<profile value="http://nictiz.nl/fhir/StructureDefinition/zib-MedicationUse"/>
				</meta>
				<extension url="http://nictiz.nl/fhir/StructureDefinition/zib-MedicationUse-Author">
					<valueReference>
						<reference value="urn:uuid:529AC507-AC61-11E8-4350-09173F13E4C5"/>
						<display value="I. XXX_Jangi"/>
					</valueReference>
				</extension>
				<extension url="http://nictiz.nl/fhir/StructureDefinition/zib-Medication-MedicationTreatment">
					<valueIdentifier>
						<system value="urn:oid:2.16.840.1.113883.2.4.3.11.999.77.1.1"/>
						<value value="MBH_123_6"/>
					</valueIdentifier>
				</extension>
				<extension url="http://nictiz.nl/fhir/StructureDefinition/zib-Medication-CopyIndicator">
					<valueBoolean value="true"/>
				</extension>
				<identifier>
					<system value="urn:oid:2.16.840.1.113883.2.4.3.11.999.77.6.1"/>
					<value value="MBH_123_5_MGB_2"/>
				</identifier>
				<status value="active"/>
				<category>
					<coding>
						<system value="urn:oid:2.16.840.1.113883.2.4.3.11.60.20.77.5.3"/>
						<code value="6"/>
						<display value="Medicatiegebruik"/>
					</coding>
					<text value="Medicatiegebruik"/>
				</category>
				<medicationCodeableConcept>
					<coding>
						<system value="urn:oid:2.16.840.1.113883.2.4.4.7"/>
						<code value="1537792"/>
					</coding>
					<text value="SIMVASTATINE APOTEX TABLET FILMOMHULD 10MG"/>
				</medicationCodeableConcept>
				<effectivePeriod>
					<start value="2017-09-27T00:00:00+02:00"/>
					<end value="2018-02-24T23:59:00+01:00"/>
				</effectivePeriod>
				<dateAsserted value="2018-02-25T15:37:00+01:00"/>
				<subject>
					<reference value="urn:uuid:529AC507-AC61-11E8-4350-09173F13E4C5"/>
					<display value="I. XXX_Jangi"/>
				</subject>
				<taken value="y"/>
				<note>
					<text value="Veel last van jeuk"/>
				</note>
				<dosage>
					<text value="Van T-248 t/m T-173, 1 maal per dag 1 tablet‘s avonds, oraal, vanaf T-172 gestopt"/>
					<timing>
						<repeat>
							<frequency value="1"/>
							<period value="1"/>
							<periodUnit value="d"/>
							<when value="EVE"/>
						</repeat>
					</timing>
					<route>
						<coding>
							<system value="urn:oid:2.16.840.1.113883.2.4.4.9"/>
							<code value="9"/>
						</coding>
						<text value="oraal"/>
					</route>
					<doseQuantity>
						<value value="1"/>
						<unit value="stuk"/>
						<system value="urn:oid:2.16.840.1.113883.2.4.4.1.900.2"/>
						<code value="245"/>
					</doseQuantity>
				</dosage>
			</MedicationStatement>
		</resource>
	</entry>
	<entry>
		<fullUrl value="urn:uuid:529AC554-AC61-11E8-4350-09173F13E4C5"/>
		<resource>
			<MedicationRequest>
				<meta>
					<profile value="http://nictiz.nl/fhir/StructureDefinition/zib-MedicationAgreement"/>
				</meta>
				<extension url="http://nictiz.nl/fhir/StructureDefinition/zib-Medication-PeriodOfUse">
					<valuePeriod>
						<start value="2018-08-19T00:00:00+02:00"/>
						<end value="2018-09-02T00:00:00+02:00"/>
					</valuePeriod>
				</extension>
				<extension url="http://nictiz.nl/fhir/StructureDefinition/zib-Medication-MedicationTreatment">
					<valueIdentifier>
						<system value="urn:oid:2.16.840.1.113883.2.4.3.11.999.77.1.1"/>
						<value value="MBH_123_7"/>
					</valueIdentifier>
				</extension>
				<extension url="http://nictiz.nl/fhir/StructureDefinition/zib-Medication-CopyIndicator">
					<valueBoolean value="true"/>
				</extension>
				<identifier>
					<system value="urn:oid:2.16.840.1.113883.2.4.3.11.999.77.16076005.1"/>
					<value value="MBH_123_7_MA_1"/>
				</identifier>
				<intent value="order"/>
				<category>
					<coding>
						<system value="http://snomed.info/sct"/>
						<code value="16076005"/>
						<display value="Prescription (procedure)"/>
					</coding>
					<text value="Medicatieafspraak"/>
				</category>
				<medicationCodeableConcept>
					<coding>
						<system value="urn:oid:2.16.840.1.113883.2.4.4.10"/>
						<code value="5274"/>
					</coding>
					<text value="Flucloxacilline capsule 500mg"/>
				</medicationCodeableConcept>
				<subject>
					<reference value="urn:uuid:529AC507-AC61-11E8-4350-09173F13E4C5"/>
					<display value="I. XXX_Jangi"/>
				</subject>
				<authoredOn value="2018-05-08T12:11:00+02:00"/>
				<requester>
					<extension url="http://nictiz.nl/fhir/StructureDefinition/zib-MedicationAgreement-RequesterRole">
						<valueReference>
							<reference value="urn:uuid:529AC533-AC61-11E8-4350-09173F13E4C5"/>
							<display value="John de Vries || Huisartsen, niet nader gespecificeerd || Huisartsenpraktijk Pulver &amp; Partners"/>
						</valueReference>
					</extension>
					<agent>
						<reference value="urn:uuid:529AC526-AC61-11E8-4350-09173F13E4C5"/>
						<display value="John de Vries"/>
					</agent>
				</requester>
				<dosageInstruction>
					<sequence value="1"/>
					<text value="Vanaf T+3 t/m T+17, 3 maal per dag 1 capsule om de 8 uur, oraal"/>
					<timing>
						<repeat>
							<frequency value="1"/>
							<period value="1"/>
							<periodUnit value="d"/>
						</repeat>
					</timing>
					<route>
						<coding>
							<system value="urn:oid:2.16.840.1.113883.2.4.4.9"/>
							<code value="9"/>
						</coding>
						<text value="oraal"/>
					</route>
					<doseQuantity>
						<value value="1"/>
						<unit value="stuk"/>
						<system value="urn:oid:2.16.840.1.113883.2.4.4.1.900.2"/>
						<code value="245"/>
					</doseQuantity>
				</dosageInstruction>
			</MedicationRequest>
		</resource>
	</entry>
	<entry>
		<fullUrl value="urn:uuid:529AC559-AC61-11E8-4350-09173F13E4C5"/>
		<resource>
			<MedicationDispense>
				<meta>
					<profile value="http://nictiz.nl/fhir/StructureDefinition/zib-AdministrationAgreement"/>
				</meta>
				<extension url="http://nictiz.nl/fhir/StructureDefinition/zib-AdministrationAgreement-AuthoredOn">
					<valueDateTime value="2018-07-19T11:50:00+02:00"/>
				</extension>
				<extension url="http://nictiz.nl/fhir/StructureDefinition/zib-Medication-PeriodOfUse">
					<valuePeriod>
						<start value="2018-07-02T00:00:00+02:00"/>
						<end value="2018-07-18T23:59:00+02:00"/>
					</valuePeriod>
				</extension>
				<extension url="http://nictiz.nl/fhir/StructureDefinition/zib-Medication-MedicationTreatment">
					<valueIdentifier>
						<system value="urn:oid:2.16.840.1.113883.2.4.3.11.999.77.1.1"/>
						<value value="MBH_123_8"/>
					</valueIdentifier>
				</extension>
				<extension url="http://nictiz.nl/fhir/StructureDefinition/zib-Medication-CopyIndicator">
					<valueBoolean value="true"/>
				</extension>
				<modifierExtension url="http://nictiz.nl/fhir/StructureDefinition/zib-Medication-StopType">
					<valueCodeableConcept>
						<coding>
							<system value="urn:oid:2.16.840.1.113883.2.4.3.11.60.20.77.5.2.1"/>
							<code value="1"/>
						</coding>
						<text value="Onderbreking"/>
					</valueCodeableConcept>
				</modifierExtension>
				<identifier>
					<system value="urn:oid:2.16.840.1.113883.2.4.3.11.999.77.422037009.1"/>
					<value value="MBH_123_8_TA_2"/>
				</identifier>
				<category>
					<coding>
						<system value="http://snomed.info/sct"/>
						<code value="422037009"/>
						<display value="Provider medication administration instructions (procedure)"/>
					</coding>
					<text value="Toedieningsafspraak"/>
				</category>
				<medicationCodeableConcept>
					<coding>
						<system value="urn:oid:2.16.840.1.113883.2.4.4.7"/>
						<code value="2230879"/>
					</coding>
					<text value="Atorvastatine ranbaxy tablet filmomhuld 40 mg"/>
				</medicationCodeableConcept>
				<subject>
					<reference value="urn:uuid:529AC507-AC61-11E8-4350-09173F13E4C5"/>
					<display value="I. XXX_Jangi"/>
				</subject>
				<performer>
					<actor>
						<reference value="urn:oid:2.16.528.1.1007.3.3.013336578"/>
						<display value="Poliapotheek Antonius"/>
					</actor>
				</performer>
				<authorizingPrescription>
					<identifier>
						<system value="urn:oid:2.16.840.1.113883.2.4.3.11.999.77.16076005.1"/>
						<value value="MBH_123_8_MA_3"/>
					</identifier>
					<display value="relatie naar medicatieafspraak: MBH_123_8_MA_3 || 2.16.840.1.113883.2.4.3.11.999.77.16076005.1"/>
				</authorizingPrescription>
				<dosageInstruction>
					<sequence value="1"/>
					<text value="Vanaf T-45 t/m T-29, 1 maal per dag 2 tabletten ‘s avonds, oraal"/>
					<timing>
						<repeat>
							<frequency value="1"/>
							<period value="1"/>
							<periodUnit value="d"/>
							<when value="EVE"/>
						</repeat>
					</timing>
					<route>
						<coding>
							<system value="urn:oid:2.16.840.1.113883.2.4.4.9"/>
							<code value="9"/>
						</coding>
						<text value="oraal"/>
					</route>
					<doseQuantity>
						<value value="2"/>
						<unit value="stuk"/>
						<system value="urn:oid:2.16.840.1.113883.2.4.4.1.900.2"/>
						<code value="245"/>
					</doseQuantity>
				</dosageInstruction>
			</MedicationDispense>
		</resource>
	</entry>
	<entry>
		<fullUrl value="urn:uuid:529AC55B-AC61-11E8-4350-09173F13E4C5"/>
		<resource>
			<MedicationRequest>
				<meta>
					<profile value="http://nictiz.nl/fhir/StructureDefinition/zib-MedicationAgreement"/>
				</meta>
				<extension url="http://nictiz.nl/fhir/StructureDefinition/zib-Medication-PeriodOfUse">
					<valuePeriod>
						<start value="2018-07-02T00:00:00+02:00"/>
						<end value="2018-07-18T00:00:00+02:00"/>
					</valuePeriod>
				</extension>
				<extension url="http://nictiz.nl/fhir/StructureDefinition/zib-Medication-MedicationTreatment">
					<valueIdentifier>
						<system value="urn:oid:2.16.840.1.113883.2.4.3.11.999.77.1.1"/>
						<value value="MBH_123_9"/>
					</valueIdentifier>
				</extension>
				<extension url="http://nictiz.nl/fhir/StructureDefinition/zib-Medication-CopyIndicator">
					<valueBoolean value="true"/>
				</extension>
				<identifier>
					<system value="urn:oid:2.16.840.1.113883.2.4.3.11.999.77.16076005.1"/>
					<value value="MBH_123_9_MA_1"/>
				</identifier>
				<intent value="order"/>
				<category>
					<coding>
						<system value="http://snomed.info/sct"/>
						<code value="16076005"/>
						<display value="Prescription (procedure)"/>
					</coding>
					<text value="Medicatieafspraak"/>
				</category>
				<medicationCodeableConcept>
					<coding>
						<system value="urn:oid:2.16.840.1.113883.2.4.4.10"/>
						<code value="5274"/>
					</coding>
					<text value="Flucloxacilline capsule 500mg"/>
				</medicationCodeableConcept>
				<subject>
					<reference value="urn:uuid:529AC507-AC61-11E8-4350-09173F13E4C5"/>
					<display value="I. XXX_Jangi"/>
				</subject>
				<authoredOn value="2018-07-02T11:50:00+02:00"/>
				<requester>
					<extension url="http://nictiz.nl/fhir/StructureDefinition/zib-MedicationAgreement-RequesterRole">
						<valueReference>
							<reference value="urn:uuid:529AC533-AC61-11E8-4350-09173F13E4C5"/>
							<display value="John de Vries || Huisartsen, niet nader gespecificeerd || Huisartsenpraktijk Pulver &amp; Partners"/>
						</valueReference>
					</extension>
					<agent>
						<reference value="urn:uuid:529AC526-AC61-11E8-4350-09173F13E4C5"/>
						<display value="John de Vries"/>
					</agent>
				</requester>
				<dosageInstruction>
					<sequence value="1"/>
					<text value="Vanaf T-45 t/m T-31, 1 keer per exact 8 uur 1 capsule, oraal"/>
					<timing>
						<repeat>
							<period value="8"/>
							<periodUnit value="h"/>
						</repeat>
					</timing>
					<route>
						<coding>
							<system value="urn:oid:2.16.840.1.113883.2.4.4.9"/>
							<code value="9"/>
						</coding>
						<text value="oraal"/>
					</route>
					<doseQuantity>
						<value value="1"/>
						<unit value="stuk"/>
						<system value="urn:oid:2.16.840.1.113883.2.4.4.1.900.2"/>
						<code value="245"/>
					</doseQuantity>
				</dosageInstruction>
			</MedicationRequest>
		</resource>
	</entry>
	<entry>
		<fullUrl value="urn:uuid:529AC560-AC61-11E8-4350-09173F13E4C5"/>
		<resource>
			<MedicationDispense>
				<meta>
					<profile value="http://nictiz.nl/fhir/StructureDefinition/zib-AdministrationAgreement"/>
				</meta>
				<extension url="http://nictiz.nl/fhir/StructureDefinition/zib-AdministrationAgreement-AuthoredOn">
					<valueDateTime value="2018-07-11T15:50:00+02:00"/>
				</extension>
				<extension url="http://nictiz.nl/fhir/StructureDefinition/zib-Medication-PeriodOfUse">
					<valuePeriod>
						<start value="2018-06-21T00:00:00+02:00"/>
						<end value="2018-07-10T23:59:00+02:00"/>
					</valuePeriod>
				</extension>
				<extension url="http://nictiz.nl/fhir/StructureDefinition/zib-Medication-MedicationTreatment">
					<valueIdentifier>
						<system value="urn:oid:2.16.840.1.113883.2.4.3.11.999.77.1.1"/>
						<value value="MBH_123_10"/>
					</valueIdentifier>
				</extension>
				<extension url="http://nictiz.nl/fhir/StructureDefinition/zib-Medication-CopyIndicator">
					<valueBoolean value="true"/>
				</extension>
				<modifierExtension url="http://nictiz.nl/fhir/StructureDefinition/zib-Medication-StopType">
					<valueCodeableConcept>
						<coding>
							<system value="urn:oid:2.16.840.1.113883.2.4.3.11.60.20.77.5.2.1"/>
							<code value="2"/>
						</coding>
						<text value="Staking"/>
					</valueCodeableConcept>
				</modifierExtension>
				<identifier>
					<system value="urn:oid:2.16.840.1.113883.2.4.3.11.999.77.422037009.1"/>
					<value value="MBH_123_10_TA_2"/>
				</identifier>
				<category>
					<coding>
						<system value="http://snomed.info/sct"/>
						<code value="422037009"/>
						<display value="Provider medication administration instructions (procedure)"/>
					</coding>
					<text value="Toedieningsafspraak"/>
				</category>
				<medicationCodeableConcept>
					<coding>
						<system value="urn:oid:2.16.840.1.113883.2.4.4.7"/>
						<code value="2105586"/>
					</coding>
					<text value="PERINDOPRIL TERT-BUTYLAMINE GLENMARK TABLET 4MG"/>
				</medicationCodeableConcept>
				<subject>
					<reference value="urn:uuid:529AC507-AC61-11E8-4350-09173F13E4C5"/>
					<display value="I. XXX_Jangi"/>
				</subject>
				<performer>
					<actor>
						<reference value="urn:oid:2.16.528.1.1007.3.3.013336578"/>
						<display value="Poliapotheek Antonius"/>
					</actor>
				</performer>
				<dosageInstruction>
					<sequence value="1"/>
					<text value="Vanaf T-56 t/m T-37, 1 maal per dag 1 tablet ‘s morgens, oraal"/>
					<timing>
						<repeat>
							<frequency value="1"/>
							<period value="1"/>
							<periodUnit value="d"/>
							<when value="MORN"/>
						</repeat>
					</timing>
					<route>
						<coding>
							<system value="urn:oid:2.16.840.1.113883.2.4.4.9"/>
							<code value="9"/>
						</coding>
						<text value="oraal"/>
					</route>
					<doseQuantity>
						<value value="1"/>
						<unit value="stuk"/>
						<system value="urn:oid:2.16.840.1.113883.2.4.4.1.900.2"/>
						<code value="245"/>
					</doseQuantity>
				</dosageInstruction>
			</MedicationDispense>
		</resource>
	</entry>
	<entry>
		<fullUrl value="urn:uuid:529AC561-AC61-11E8-4350-09173F13E4C5"/>
		<resource>
			<List>
				<meta>
					<profile value="http://nictiz.nl/fhir/StructureDefinition/MedicationOverview"/>
				</meta>
				<extension url="http://nictiz.nl/fhir/StructureDefinition/MedicationOverview-Verification">
					<extension url="VerificationPatient">
						<valueBoolean value="false"/>
					</extension>
					<extension url="VerificationHealthProfessional">
						<valueBoolean value="false"/>
					</extension>
				</extension>
				<status value="current"/>
				<mode value="snapshot"/>
				<code>
					<coding>
						<system value="http://snomed.info/sct"/>
						<code value="11181000146103"/>
						<display value="Actual medication overview (record artifact)"/>
					</coding>
					<text value="Medicatieoverzicht"/>
				</code>
				<subject>
					<reference value="urn:uuid:529AC507-AC61-11E8-4350-09173F13E4C5"/>
					<display value="I. XXX_Jangi"/>
				</subject>
				<date value="2018-08-16"/>
				<source>
					<extension url="http://nictiz.nl/fhir/StructureDefinition/MedicationOverview-SourceOrganization">
						<valueReference>
							<reference value="urn:uuid:529AC52D-AC61-11E8-4350-09173F13E4C5"/>
							<display value="Apotheek de Gulle Gaper"/>
						</valueReference>
					</extension>
				</source>
				<entry>
					<item>
						<reference value="urn:uuid:529AC53D-AC61-11E8-4350-09173F13E4C5"/>
						<display value="Medicatieafspraak identifier: value='MBH_123_4_MA_1', system='urn:oid:2.16.840.1.113883.2.4.3.11.999.77.16076005.1'"/>
					</item>
				</entry>
				<entry>
					<item>
						<reference value="urn:uuid:529AC549-AC61-11E8-4350-09173F13E4C5"/>
						<display value="Medicatieafspraak identifier: value='MBH_123_6_MA_1', system='urn:oid:2.16.840.1.113883.2.4.3.11.999.77.16076005.1'"/>
					</item>
				</entry>
				<entry>
					<item>
						<reference value="urn:uuid:529AC554-AC61-11E8-4350-09173F13E4C5"/>
						<display value="Medicatieafspraak identifier: value='MBH_123_7_MA_1', system='urn:oid:2.16.840.1.113883.2.4.3.11.999.77.16076005.1'"/>
					</item>
				</entry>
				<entry>
					<item>
						<reference value="urn:uuid:529AC55B-AC61-11E8-4350-09173F13E4C5"/>
						<display value="Medicatieafspraak identifier: value='MBH_123_9_MA_1', system='urn:oid:2.16.840.1.113883.2.4.3.11.999.77.16076005.1'"/>
					</item>
				</entry>
				<entry>
					<item>
						<reference value="urn:uuid:529AC53B-AC61-11E8-4350-09173F13E4C5"/>
						<display value="Toedieningsafspraak identifier: value='MBH_123_2_TA_1', system='urn:oid:2.16.840.1.113883.2.4.3.11.999.77.422037009.1'"/>
					</item>
				</entry>
				<entry>
					<item>
						<reference value="urn:uuid:529AC543-AC61-11E8-4350-09173F13E4C5"/>
						<display value="Toedieningsafspraak identifier: value='MBH_123_4_TA_1', system='urn:oid:2.16.840.1.113883.2.4.3.11.999.77.422037009.1'"/>
					</item>
				</entry>
				<entry>
					<item>
						<reference value="urn:uuid:529AC545-AC61-11E8-4350-09173F13E4C5"/>
						<display value="Toedieningsafspraak identifier: value='MBH_123_5_TA_1', system='urn:oid:2.16.840.1.113883.2.4.3.11.999.77.422037009.1'"/>
					</item>
				</entry>
				<entry>
					<item>
						<reference value="urn:uuid:529AC54E-AC61-11E8-4350-09173F13E4C5"/>
						<display value="Toedieningsafspraak identifier: value='MBH_123_6_TA_1', system='urn:oid:2.16.840.1.113883.2.4.3.11.999.77.422037009.1'"/>
					</item>
				</entry>
				<entry>
					<item>
						<reference value="urn:uuid:529AC559-AC61-11E8-4350-09173F13E4C5"/>
						<display value="Toedieningsafspraak identifier: value='MBH_123_8_TA_2', system='urn:oid:2.16.840.1.113883.2.4.3.11.999.77.422037009.1'"/>
					</item>
				</entry>
				<entry>
					<item>
						<reference value="urn:uuid:529AC560-AC61-11E8-4350-09173F13E4C5"/>
						<display value="Toedieningsafspraak identifier: value='MBH_123_10_TA_2', system='urn:oid:2.16.840.1.113883.2.4.3.11.999.77.422037009.1'"/>
					</item>
				</entry>
				<entry>
					<item>
						<reference value="urn:uuid:529AC539-AC61-11E8-4350-09173F13E4C5"/>
						<display value="Medicatiegebruik identifier: value='MBH_123_1_MGB_1', system='urn:oid:2.16.840.1.113883.2.4.3.11.999.77.6.1'"/>
					</item>
				</entry>
				<entry>
					<item>
						<reference value="urn:uuid:529AC547-AC61-11E8-4350-09173F13E4C5"/>
						<display value="Medicatiegebruik identifier: value='MBH_123_5_MGB_1', system='urn:oid:2.16.840.1.113883.2.4.3.11.999.77.6.1'"/>
					</item>
				</entry>
				<entry>
					<item>
						<reference value="urn:uuid:529AC550-AC61-11E8-4350-09173F13E4C5"/>
						<display value="Medicatiegebruik identifier: value='MBH_123_6_MGB_1', system='urn:oid:2.16.840.1.113883.2.4.3.11.999.77.6.1'"/>
					</item>
				</entry>
				<entry>
					<item>
						<reference value="urn:uuid:529AC552-AC61-11E8-4350-09173F13E4C5"/>
						<display value="Medicatiegebruik identifier: value='MBH_123_5_MGB_2', system='urn:oid:2.16.840.1.113883.2.4.3.11.999.77.6.1'"/>
					</item>
				</entry>
			</List>
		</resource>
	</entry>
</Bundle>
