{
  "resourceType": "Bundle",
  "id": "mg-mp-mg-tst-MTD-Scenarioset11-v20",
  "type": "transaction",
  "entry": [
    {
      "fullUrl": "urn:uuid:c33f00e6-6a95-11ec-0000-020000000000",
      "resource": {
        "resourceType": "MedicationAdministration",
        "id": "mp-MedAdm2-mp9-MBH200wdsmtd1MTD1",
        "meta": {
          "profile": [
            "http://nictiz.nl/fhir/StructureDefinition/mp-MedicationAdministration2"
          ]
        },
        "extension": [
          {
            "url": "http://nictiz.nl/fhir/StructureDefinition/ext-MedicationAdministration2.AgreedDateTime",
            "valueDateTime": "${DATE, T, D, -20}T20:00:00+02:00"
          },
          {
            "url": "http://nictiz.nl/fhir/StructureDefinition/ext-AsAgreedIndicator",
            "valueBoolean": true
          },
          {
            "url": "http://nictiz.nl/fhir/StructureDefinition/ext-PharmaceuticalTreatment.Identifier",
            "valueIdentifier": {
              "system": "urn:oid:2.16.840.1.113883.2.4.3.11.999.77.1.1",
              "value": "MBH_200_wdsmtd1"
            }
          }
        ],
        "identifier": [
          {
            "system": "urn:oid:2.16.840.1.113883.2.4.3.11.999.77.18629005.1",
            "value": "MBH_200_wdsmtd1_MTD1"
          }
        ],
        "status": "unknown",
        "category": {
          "coding": [
            {
              "system": "http://snomed.info/sct",
              "code": "18629005",
              "display": "toediening van medicatie"
            }
          ]
        },
        "medicationReference": {
          "reference": "urn:uuid:c33f017c-6a95-11ec-0000-020000000000",
          "type": "Medication",
          "display": "ACENOCOUMAROL TABLET 1MG"
        },
        "subject": {
          "reference": "urn:uuid:c33f00c8-6a95-11ec-0000-020000000000",
          "type": "Patient",
          "display": "Patient, M. XXX_Pherai"
        },
        "effectiveDateTime": "${DATE, T, D, -20}T20:30:00+02:00",
        "performer": [
          {
            "actor": {
              "reference": "urn:uuid:c33f015e-6a95-11ec-0000-020000000000",
              "type": "RelatedPerson",
              "display": "Contact person, Toos de Bakker"
            }
          }
        ],
        "request": {
          "extension": [
            {
              "url": "http://nictiz.nl/fhir/StructureDefinition/ext-ResourceCategory",
              "valueCodeableConcept": {
                "coding": [
                  {
                    "system": "http://snomed.info/sct",
                    "code": "395067002",
                    "display": "optimaliseren van dosering van medicatie"
                  }
                ]
              }
            }
          ],
          "type": "MedicationRequest",
          "identifier": {
            "system": "urn:oid:2.16.840.1.113883.2.4.3.11.999.77.632.1",
            "value": "MBH_200_wdsmtd1_WDS_opstartschema"
          },
          "display": "relatie naar wisselend doseerschema met identificatie: MBH_200_wdsmtd1_WDS_opstartschema || 2.16.840.1.113883.2.4.3.11.999.77.632.1"
        },
        "dosage": {
          "extension": [
            {
              "url": "http://nictiz.nl/fhir/StructureDefinition/ext-MedicationAdministration2.AgreedAmount",
              "valueQuantity": {
                "extension": [
                  {
                    "url": "http://hl7.org/fhir/StructureDefinition/iso21090-PQ-translation",
                    "valueQuantity": {
                      "value": 2,
                      "unit": "stuk",
                      "system": "urn:oid:2.16.840.1.113883.2.4.4.1.900.2",
                      "code": "245"
                    }
                  }
                ],
                "value": 2,
                "unit": "stuk",
                "system": "http://unitsofmeasure.org",
                "code": "1"
              }
            }
          ],
          "route": {
            "coding": [
              {
                "system": "urn:oid:2.16.840.1.113883.2.4.4.9",
                "code": "9",
                "display": "ORAAL"
              }
            ]
          },
          "dose": {
            "extension": [
              {
                "url": "http://hl7.org/fhir/StructureDefinition/iso21090-PQ-translation",
                "valueQuantity": {
                  "value": 1,
                  "unit": "stuk",
                  "system": "urn:oid:2.16.840.1.113883.2.4.4.1.900.2",
                  "code": "245"
                }
              }
            ],
            "value": 1,
            "unit": "stuk",
            "system": "http://unitsofmeasure.org",
            "code": "1"
          }
        }
      },
      "request": {
        "method": "POST",
        "url": "MedicationAdministration"
      }
    },
    {
      "fullUrl": "urn:uuid:c33f0104-6a95-11ec-0000-020000000000",
      "resource": {
        "resourceType": "MedicationAdministration",
        "id": "mp-MedAdm2-mp9-MBH200wdsmtd1MTD2",
        "meta": {
          "profile": [
            "http://nictiz.nl/fhir/StructureDefinition/mp-MedicationAdministration2"
          ]
        },
        "extension": [
          {
            "url": "http://nictiz.nl/fhir/StructureDefinition/ext-MedicationAdministration2.AgreedDateTime",
            "valueDateTime": "${DATE, T, D, -19}T20:00:00+02:00"
          },
          {
            "url": "http://nictiz.nl/fhir/StructureDefinition/ext-MedicationAdministration2.ReasonForDeviation",
            "valueCodeableConcept": {
              "coding": [
                {
                  "system": "http://snomed.info/sct",
                  "code": "406149000",
                  "display": "toediening van medicatie geweigerd"
                }
              ]
            }
          },
          {
            "url": "http://nictiz.nl/fhir/StructureDefinition/ext-AsAgreedIndicator",
            "valueBoolean": false
          },
          {
            "url": "http://nictiz.nl/fhir/StructureDefinition/ext-PharmaceuticalTreatment.Identifier",
            "valueIdentifier": {
              "system": "urn:oid:2.16.840.1.113883.2.4.3.11.999.77.1.1",
              "value": "MBH_200_wdsmtd1"
            }
          }
        ],
        "identifier": [
          {
            "system": "urn:oid:2.16.840.1.113883.2.4.3.11.999.77.18629005.1",
            "value": "MBH_200_wdsmtd1_MTD2"
          }
        ],
        "status": "unknown",
        "category": {
          "coding": [
            {
              "system": "http://snomed.info/sct",
              "code": "18629005",
              "display": "toediening van medicatie"
            }
          ]
        },
        "medicationReference": {
          "reference": "urn:uuid:c33f017c-6a95-11ec-0000-020000000000",
          "type": "Medication",
          "display": "ACENOCOUMAROL TABLET 1MG"
        },
        "subject": {
          "reference": "urn:uuid:c33f00c8-6a95-11ec-0000-020000000000",
          "type": "Patient",
          "display": "Patient, M. XXX_Pherai"
        },
        "effectiveDateTime": "${DATE, T, D, -19}T20:00:00+02:00",
        "performer": [
          {
            "actor": {
              "reference": "urn:uuid:c33f019a-6a95-11ec-0000-020000000000",
              "type": "PractitionerRole",
              "display": "Healthcare professional (role), Jantien Toedien, Verpleegkundigen, niet nader gespecificeerd"
            }
          }
        ],
        "request": {
          "extension": [
            {
              "url": "http://nictiz.nl/fhir/StructureDefinition/ext-ResourceCategory",
              "valueCodeableConcept": {
                "coding": [
                  {
                    "system": "http://snomed.info/sct",
                    "code": "395067002",
                    "display": "optimaliseren van dosering van medicatie"
                  }
                ]
              }
            }
          ],
          "type": "MedicationRequest",
          "identifier": {
            "system": "urn:oid:2.16.840.1.113883.2.4.3.11.999.77.632.1",
            "value": "MBH_200_wdsmtd1_WDS_opstartschema"
          },
          "display": "relatie naar wisselend doseerschema met identificatie: MBH_200_wdsmtd1_WDS_opstartschema || 2.16.840.1.113883.2.4.3.11.999.77.632.1"
        },
        "dosage": {
          "extension": [
            {
              "url": "http://nictiz.nl/fhir/StructureDefinition/ext-MedicationAdministration2.AgreedAmount",
              "valueQuantity": {
                "extension": [
                  {
                    "url": "http://hl7.org/fhir/StructureDefinition/iso21090-PQ-translation",
                    "valueQuantity": {
                      "value": 2,
                      "unit": "stuk",
                      "system": "urn:oid:2.16.840.1.113883.2.4.4.1.900.2",
                      "code": "245"
                    }
                  }
                ],
                "value": 2,
                "unit": "stuk",
                "system": "http://unitsofmeasure.org",
                "code": "1"
              }
            }
          ],
          "route": {
            "coding": [
              {
                "system": "urn:oid:2.16.840.1.113883.2.4.4.9",
                "code": "9",
                "display": "Oraal"
              }
            ]
          },
          "dose": {
            "extension": [
              {
                "url": "http://hl7.org/fhir/StructureDefinition/iso21090-PQ-translation",
                "valueQuantity": {
                  "value": 1,
                  "unit": "stuk",
                  "system": "urn:oid:2.16.840.1.113883.2.4.4.1.900.2",
                  "code": "245"
                }
              }
            ],
            "value": 1,
            "unit": "stuk",
            "system": "http://unitsofmeasure.org",
            "code": "1"
          }
        }
      },
      "request": {
        "method": "POST",
        "url": "MedicationAdministration"
      }
    },
    {
      "fullUrl": "urn:uuid:c33f0122-6a95-11ec-0000-020000000000",
      "resource": {
        "resourceType": "MedicationAdministration",
        "id": "mp-MedAdm2-mp9-MBH200wdsmtd1MTD3",
        "meta": {
          "profile": [
            "http://nictiz.nl/fhir/StructureDefinition/mp-MedicationAdministration2"
          ]
        },
        "extension": [
          {
            "url": "http://nictiz.nl/fhir/StructureDefinition/ext-MedicationAdministration2.AgreedDateTime",
            "valueDateTime": "${DATE, T, D, -17}T20:00:00+02:00"
          },
          {
            "url": "http://nictiz.nl/fhir/StructureDefinition/ext-MedicationAdministration2.ReasonForDeviation",
            "valueCodeableConcept": {
              "coding": [
                {
                  "system": "http://snomed.info/sct",
                  "code": "408366001",
                  "display": "niet in staat om medicatie te gebruiken"
                }
              ]
            }
          },
          {
            "url": "http://nictiz.nl/fhir/StructureDefinition/ext-AsAgreedIndicator",
            "valueBoolean": false
          },
          {
            "url": "http://nictiz.nl/fhir/StructureDefinition/ext-PharmaceuticalTreatment.Identifier",
            "valueIdentifier": {
              "system": "urn:oid:2.16.840.1.113883.2.4.3.11.999.77.1.1",
              "value": "MBH_200_wdsmtd1"
            }
          }
        ],
        "identifier": [
          {
            "system": "urn:oid:2.16.840.1.113883.2.4.3.11.999.77.18629005.1",
            "value": "MBH_200_wdsmtd1_MTD3"
          }
        ],
        "status": "unknown",
        "category": {
          "coding": [
            {
              "system": "http://snomed.info/sct",
              "code": "18629005",
              "display": "toediening van medicatie"
            }
          ]
        },
        "medicationReference": {
          "reference": "urn:uuid:c33f017c-6a95-11ec-0000-020000000000",
          "type": "Medication",
          "display": "ACENOCOUMAROL TABLET 1MG"
        },
        "subject": {
          "reference": "urn:uuid:c33f00c8-6a95-11ec-0000-020000000000",
          "type": "Patient",
          "display": "Patient, M. XXX_Pherai"
        },
        "effectiveDateTime": "${DATE, T, D, -17}T20:00:00+02:00",
        "performer": [
          {
            "actor": {
              "reference": "urn:uuid:c33f019a-6a95-11ec-0000-020000000000",
              "type": "PractitionerRole",
              "display": "Healthcare professional (role), Jantien Toedien, Verpleegkundigen, niet nader gespecificeerd"
            }
          }
        ],
        "request": {
          "extension": [
            {
              "url": "http://nictiz.nl/fhir/StructureDefinition/ext-ResourceCategory",
              "valueCodeableConcept": {
                "coding": [
                  {
                    "system": "http://snomed.info/sct",
                    "code": "395067002",
                    "display": "optimaliseren van dosering van medicatie"
                  }
                ]
              }
            }
          ],
          "type": "MedicationRequest",
          "identifier": {
            "system": "urn:oid:2.16.840.1.113883.2.4.3.11.999.77.632.1",
            "value": "MBH_200_wdsmtd1_WDS_opstartschema"
          },
          "display": "relatie naar wisselend doseerschema met identificatie: MBH_200_wdsmtd1_WDS_opstartschema || 2.16.840.1.113883.2.4.3.11.999.77.632.1"
        },
        "note": [
          {
            "text": "Geprobeerd, maar niet gelukt met de tablet"
          }
        ],
        "dosage": {
          "extension": [
            {
              "url": "http://nictiz.nl/fhir/StructureDefinition/ext-MedicationAdministration2.AgreedAmount",
              "valueQuantity": {
                "extension": [
                  {
                    "url": "http://hl7.org/fhir/StructureDefinition/iso21090-PQ-translation",
                    "valueQuantity": {
                      "value": 1,
                      "unit": "stuk",
                      "system": "urn:oid:2.16.840.1.113883.2.4.4.1.900.2",
                      "code": "245"
                    }
                  }
                ],
                "value": 1,
                "unit": "stuk",
                "system": "http://unitsofmeasure.org",
                "code": "1"
              }
            }
          ],
          "route": {
            "coding": [
              {
                "system": "urn:oid:2.16.840.1.113883.2.4.4.9",
                "code": "9",
                "display": "Oraal"
              }
            ]
          },
          "dose": {
            "extension": [
              {
                "url": "http://hl7.org/fhir/StructureDefinition/iso21090-PQ-translation",
                "valueQuantity": {
                  "value": 1,
                  "unit": "stuk",
                  "system": "urn:oid:2.16.840.1.113883.2.4.4.1.900.2",
                  "code": "245"
                }
              }
            ],
            "value": 1,
            "unit": "stuk",
            "system": "http://unitsofmeasure.org",
            "code": "1"
          }
        }
      },
      "request": {
        "method": "POST",
        "url": "MedicationAdministration"
      }
    },
    {
      "fullUrl": "urn:uuid:c33f0140-6a95-11ec-0000-020000000000",
      "resource": {
        "resourceType": "MedicationAdministration",
        "id": "mp-MedAdm2-mp9-MBH200wdsmtd1MTD4",
        "meta": {
          "profile": [
            "http://nictiz.nl/fhir/StructureDefinition/mp-MedicationAdministration2"
          ]
        },
        "extension": [
          {
            "url": "http://nictiz.nl/fhir/StructureDefinition/ext-MedicationAdministration2.AgreedDateTime",
            "valueDateTime": "${DATE, T, D, -16}T20:00:00+02:00"
          },
          {
            "url": "http://nictiz.nl/fhir/StructureDefinition/ext-MedicationAdministration2.ReasonForDeviation",
            "valueCodeableConcept": {
              "coding": [
                {
                  "system": "http://snomed.info/sct",
                  "code": "153241000146104",
                  "display": "zorgafnemer niet beschikbaar om medicatie in ontvangst te nemen"
                }
              ]
            }
          },
          {
            "url": "http://nictiz.nl/fhir/StructureDefinition/ext-AsAgreedIndicator",
            "valueBoolean": false
          },
          {
            "url": "http://nictiz.nl/fhir/StructureDefinition/ext-PharmaceuticalTreatment.Identifier",
            "valueIdentifier": {
              "system": "urn:oid:2.16.840.1.113883.2.4.3.11.999.77.1.1",
              "value": "MBH_200_wdsmtd1"
            }
          }
        ],
        "identifier": [
          {
            "system": "urn:oid:2.16.840.1.113883.2.4.3.11.999.77.18629005.1",
            "value": "MBH_200_wdsmtd1_MTD4"
          }
        ],
        "status": "unknown",
        "category": {
          "coding": [
            {
              "system": "http://snomed.info/sct",
              "code": "18629005",
              "display": "toediening van medicatie"
            }
          ]
        },
        "medicationReference": {
          "reference": "urn:uuid:c33f017c-6a95-11ec-0000-020000000000",
          "type": "Medication",
          "display": "ACENOCOUMAROL TABLET 1MG"
        },
        "subject": {
          "reference": "urn:uuid:c33f00c8-6a95-11ec-0000-020000000000",
          "type": "Patient",
          "display": "Patient, M. XXX_Pherai"
        },
        "effectiveDateTime": "${DATE, T, D, -16}T20:05:00+02:00",
        "performer": [
          {
            "actor": {
              "reference": "urn:uuid:c33f01d6-6a95-11ec-0000-020000000000",
              "type": "PractitionerRole",
              "display": "Healthcare professional (role), Marleen van der Brand, Verpleegkundigen, niet nader gespecificeerd"
            }
          }
        ],
        "request": {
          "extension": [
            {
              "url": "http://nictiz.nl/fhir/StructureDefinition/ext-ResourceCategory",
              "valueCodeableConcept": {
                "coding": [
                  {
                    "system": "http://snomed.info/sct",
                    "code": "395067002",
                    "display": "optimaliseren van dosering van medicatie"
                  }
                ]
              }
            }
          ],
          "type": "MedicationRequest",
          "identifier": {
            "system": "urn:oid:2.16.840.1.113883.2.4.3.11.999.77.632.1",
            "value": "MBH_200_wdsmtd1_WDS_opstartschema"
          },
          "display": "relatie naar wisselend doseerschema met identificatie: MBH_200_wdsmtd1_WDS_opstartschema || 2.16.840.1.113883.2.4.3.11.999.77.632.1"
        },
        "dosage": {
          "extension": [
            {
              "url": "http://nictiz.nl/fhir/StructureDefinition/ext-MedicationAdministration2.AgreedAmount",
              "valueQuantity": {
                "extension": [
                  {
                    "url": "http://hl7.org/fhir/StructureDefinition/iso21090-PQ-translation",
                    "valueQuantity": {
                      "value": 1,
                      "unit": "stuk",
                      "system": "urn:oid:2.16.840.1.113883.2.4.4.1.900.2",
                      "code": "245"
                    }
                  }
                ],
                "value": 1,
                "unit": "stuk",
                "system": "http://unitsofmeasure.org",
                "code": "1"
              }
            }
          ],
          "route": {
            "coding": [
              {
                "system": "urn:oid:2.16.840.1.113883.2.4.4.9",
                "code": "9",
                "display": "Oraal"
              }
            ]
          },
          "dose": {
            "extension": [
              {
                "url": "http://hl7.org/fhir/StructureDefinition/iso21090-PQ-translation",
                "valueQuantity": {
                  "value": 0,
                  "unit": "stuk",
                  "system": "urn:oid:2.16.840.1.113883.2.4.4.1.900.2",
                  "code": "245"
                }
              }
            ],
            "value": 0,
            "unit": "stuk",
            "system": "http://unitsofmeasure.org",
            "code": "1"
          }
        }
      },
      "request": {
        "method": "POST",
        "url": "MedicationAdministration"
      }
    },
    {
      "fullUrl": "urn:uuid:c33f00c8-6a95-11ec-0000-020000000000",
      "resource": {
        "resourceType": "Patient",
        "id": "nl-core-Patient-mp9-M-XXX-Pherai",
        "meta": {
          "profile": [
            "http://nictiz.nl/fhir/StructureDefinition/nl-core-Patient"
          ]
        },
        "identifier": [
          {
            "system": "http://fhir.nl/fhir/NamingSystem/bsn",
            "value": "999900870"
          }
        ],
        "name": [
          {
            "extension": [
              {
                "url": "http://hl7.org/fhir/StructureDefinition/humanname-assembly-order",
                "valueCode": "NL1"
              }
            ],
            "use": "official",
            "text": "M. XXX_Pherai",
            "family": "XXX_Pherai",
            "_family": {
              "extension": [
                {
                  "url": "http://hl7.org/fhir/StructureDefinition/humanname-own-name",
                  "valueString": "XXX_Pherai"
                }
              ]
            },
            "given": [
              "M."
            ],
            "_given": [
              {
                "extension": [
                  {
                    "url": "http://hl7.org/fhir/StructureDefinition/iso21090-EN-qualifier",
                    "valueCode": "IN"
                  }
                ]
              }
            ]
          }
        ],
        "gender": "female",
        "_gender": {
          "extension": [
            {
              "url": "http://nictiz.nl/fhir/StructureDefinition/ext-CodeSpecification",
              "valueCodeableConcept": {
                "coding": [
                  {
                    "system": "http://terminology.hl7.org/CodeSystem/v3-AdministrativeGender",
                    "code": "F",
                    "display": "Vrouw"
                  }
                ]
              }
            }
          ]
        },
        "birthDate": "1985-11-01"
      },
      "request": {
        "method": "POST",
        "url": "Patient"
      }
    },
    {
      "fullUrl": "urn:uuid:c33f015e-6a95-11ec-0000-020000000000",
      "resource": {
        "resourceType": "RelatedPerson",
        "id": "nl-core-ContactPerson-mp9-TOOSDEBAKKER",
        "meta": {
          "profile": [
            "http://nictiz.nl/fhir/StructureDefinition/nl-core-ContactPerson"
          ]
        },
        "patient": {
          "reference": "urn:uuid:c33f00c8-6a95-11ec-0000-020000000000",
          "type": "Patient",
          "display": "Patient, M. XXX_Pherai"
        },
        "relationship": [
          {
            "coding": [
              {
                "system": "urn:oid:2.16.840.1.113883.2.4.3.11.60.40.4.23.1",
                "code": "100001",
                "display": "Mantelzorger"
              }
            ]
          }
        ],
        "name": [
          {
            "use": "official",
            "text": "Toos de Bakker",
            "family": "de Bakker",
            "_family": {
              "extension": [
                {
                  "url": "http://hl7.org/fhir/StructureDefinition/humanname-own-prefix",
                  "valueString": "de"
                },
                {
                  "url": "http://hl7.org/fhir/StructureDefinition/humanname-own-name",
                  "valueString": "Bakker"
                }
              ]
            },
            "given": [
              "Toos"
            ],
            "_given": [
              {
                "extension": [
                  {
                    "url": "http://hl7.org/fhir/StructureDefinition/iso21090-EN-qualifier",
                    "valueCode": "BR"
                  }
                ]
              }
            ]
          }
        ]
      },
      "request": {
        "method": "POST",
        "url": "RelatedPerson"
      }
    },
    {
      "fullUrl": "urn:uuid:c33f019a-6a95-11ec-0000-020000000000",
      "resource": {
        "resourceType": "PractitionerRole",
        "id": "nl-core-HPrf-PracRol-mp9-222220000-9100-11110000",
        "meta": {
          "profile": [
            "http://nictiz.nl/fhir/StructureDefinition/nl-core-HealthProfessional-PractitionerRole"
          ]
        },
        "practitioner": {
          "reference": "urn:uuid:c33f01b8-6a95-11ec-0000-020000000000",
          "type": "Practitioner",
          "display": "Healthcare professional (person), Jantien Toedien"
        },
        "organization": {
          "reference": "urn:uuid:c33f0212-6a95-11ec-0000-020000000000",
          "type": "Organization",
          "display": "Healthcare provider (organization), Thuiszorg Om en Bij"
        },
        "specialty": [
          {
            "coding": [
              {
                "system": "urn:oid:2.16.840.1.113883.2.4.6.7",
                "version": "2020-10-23T00:00:00",
                "code": "9100",
                "display": "Verpleegkundigen, niet nader gespecificeerd"
              }
            ]
          }
        ]
      },
      "request": {
        "method": "POST",
        "url": "PractitionerRole"
      }
    },
    {
      "fullUrl": "urn:uuid:c33f01b8-6a95-11ec-0000-020000000000",
      "resource": {
        "resourceType": "Practitioner",
        "id": "nl-core-HPrf-Prac-mp9-2165281100731-222220000",
        "meta": {
          "profile": [
            "http://nictiz.nl/fhir/StructureDefinition/nl-core-HealthProfessional-Practitioner"
          ]
        },
        "identifier": [
          {
            "system": "http://fhir.nl/fhir/NamingSystem/uzi-nr-pers",
            "value": "222220000"
          }
        ],
        "name": [
          {
            "use": "official",
            "text": "Jantien Toedien",
            "family": "Toedien",
            "_family": {
              "extension": [
                {
                  "url": "http://hl7.org/fhir/StructureDefinition/humanname-own-name",
                  "valueString": "Toedien"
                }
              ]
            },
            "given": [
              "Jantien"
            ],
            "_given": [
              {
                "extension": [
                  {
                    "url": "http://hl7.org/fhir/StructureDefinition/iso21090-EN-qualifier",
                    "valueCode": "BR"
                  }
                ]
              }
            ]
          }
        ]
      },
      "request": {
        "method": "POST",
        "url": "Practitioner"
      }
    },
    {
      "fullUrl": "urn:uuid:c33f01d6-6a95-11ec-0000-020000000000",
      "resource": {
        "resourceType": "PractitionerRole",
        "id": "nl-core-HPrf-PracRol-mp9-111110000-9100-11110000",
        "meta": {
          "profile": [
            "http://nictiz.nl/fhir/StructureDefinition/nl-core-HealthProfessional-PractitionerRole"
          ]
        },
        "practitioner": {
          "reference": "urn:uuid:c33f01f4-6a95-11ec-0000-020000000000",
          "type": "Practitioner",
          "display": "Healthcare professional (person), Marleen van der Brand"
        },
        "organization": {
          "reference": "urn:uuid:c33f0212-6a95-11ec-0000-020000000000",
          "type": "Organization",
          "display": "Healthcare provider (organization), Thuiszorg Om en Bij"
        },
        "specialty": [
          {
            "coding": [
              {
                "system": "urn:oid:2.16.840.1.113883.2.4.6.7",
                "version": "2020-10-23T00:00:00",
                "code": "9100",
                "display": "Verpleegkundigen, niet nader gespecificeerd"
              }
            ]
          }
        ]
      },
      "request": {
        "method": "POST",
        "url": "PractitionerRole"
      }
    },
    {
      "fullUrl": "urn:uuid:c33f01f4-6a95-11ec-0000-020000000000",
      "resource": {
        "resourceType": "Practitioner",
        "id": "nl-core-HPrf-Prac-mp9-2165281100731-111110000",
        "meta": {
          "profile": [
            "http://nictiz.nl/fhir/StructureDefinition/nl-core-HealthProfessional-Practitioner"
          ]
        },
        "identifier": [
          {
            "system": "http://fhir.nl/fhir/NamingSystem/uzi-nr-pers",
            "value": "111110000"
          }
        ],
        "name": [
          {
            "use": "official",
            "text": "Marleen van der Brand",
            "family": "van der Brand",
            "_family": {
              "extension": [
                {
                  "url": "http://hl7.org/fhir/StructureDefinition/humanname-own-prefix",
                  "valueString": "van der"
                },
                {
                  "url": "http://hl7.org/fhir/StructureDefinition/humanname-own-name",
                  "valueString": "Brand"
                }
              ]
            },
            "given": [
              "Marleen"
            ],
            "_given": [
              {
                "extension": [
                  {
                    "url": "http://hl7.org/fhir/StructureDefinition/iso21090-EN-qualifier",
                    "valueCode": "BR"
                  }
                ]
              }
            ]
          }
        ]
      },
      "request": {
        "method": "POST",
        "url": "Practitioner"
      }
    },
    {
      "fullUrl": "urn:uuid:c33f0212-6a95-11ec-0000-020000000000",
      "resource": {
        "resourceType": "Organization",
        "id": "nl-core-HPrv-Org-mp9-2165281100733-11110000",
        "meta": {
          "profile": [
            "http://nictiz.nl/fhir/StructureDefinition/nl-core-HealthcareProvider-Organization"
          ]
        },
        "identifier": [
          {
            "system": "http://fhir.nl/fhir/NamingSystem/ura",
            "value": "11110000"
          }
        ],
        "type": [
          {
            "coding": [
              {
                "system": "http://nictiz.nl/fhir/NamingSystem/organization-type",
                "code": "T2",
                "display": "Thuiszorg"
              }
            ]
          }
        ],
        "name": "Thuiszorg Om en Bij",
        "address": [
          {
            "line": [
              "Voorstraat 1"
            ],
            "_line": [
              {
                "extension": [
                  {
                    "url": "http://hl7.org/fhir/StructureDefinition/iso21090-ADXP-streetName",
                    "valueString": "Voorstraat"
                  },
                  {
                    "url": "http://hl7.org/fhir/StructureDefinition/iso21090-ADXP-houseNumber",
                    "valueString": "1"
                  }
                ]
              }
            ],
            "city": "Ons Dorp",
            "postalCode": "1223BA"
          }
        ]
      },
      "request": {
        "method": "POST",
        "url": "Organization"
      }
    },
    {
      "fullUrl": "urn:uuid:c33f017c-6a95-11ec-0000-020000000000",
      "resource": {
        "resourceType": "Medication",
        "id": "nl-core-PhPrd-mp9-216840111388324410-7323",
        "meta": {
          "profile": [
            "http://nictiz.nl/fhir/StructureDefinition/nl-core-PharmaceuticalProduct"
          ]
        },
        "code": {
          "coding": [
            {
              "system": "urn:oid:2.16.840.1.113883.2.4.4.10",
              "code": "7323",
              "display": "ACENOCOUMAROL TABLET 1MG",
              "userSelected": true
            },
            {
              "system": "urn:oid:2.16.840.1.113883.2.4.4.1",
              "code": "20303",
              "display": "ACENOCOUMAROL TABLET 1MG"
            }
          ],
          "text": "ACENOCOUMAROL TABLET 1MG"
        }
      },
      "request": {
        "method": "POST",
        "url": "Medication"
      }
    }
  ]
}