{
  "resourceType": "Bundle",
  "id": "mg-mp-mg-tst-MGB-Scenarioset13-v20",
  "type": "transaction",
  "entry": [
    {
      "fullUrl": "urn:uuid:c33f1608-6a95-11ec-0000-020000000000",
      "resource": {
        "resourceType": "MedicationStatement",
        "id": "mp-MedUse2-mp9-MBH200contactepisodeMGB",
        "meta": {
          "profile": [
            "http://nictiz.nl/fhir/StructureDefinition/mp-MedicationUse2"
          ]
        },
        "extension": [
          {
            "url": "http://nictiz.nl/fhir/StructureDefinition/ext-RenderedDosageInstruction",
            "valueString": "Vanaf T - 20 dagen, tot en met T - 9 dagen, 1 maal per dag 2 stuks, Oraal"
          },
          {
            "url": "http://nictiz.nl/fhir/StructureDefinition/ext-MedicationUse2.Prescriber",
            "valueReference": {
              "reference": "urn:uuid:c33f15cc-6a95-11ec-0000-020000000000",
              "type": "PractitionerRole",
              "display": "Healthcare professional (role), Peter van Pulver, Huisartsen, niet nader gespecificeerd"
            }
          },
          {
            "url": "http://nictiz.nl/fhir/StructureDefinition/ext-AsAgreedIndicator",
            "valueBoolean": true
          },
          {
            "url": "http://nictiz.nl/fhir/StructureDefinition/ext-PharmaceuticalTreatment.Identifier",
            "valueIdentifier": {
              "system": "urn:oid:2.16.840.1.113883.2.4.3.11.999.77.1.1",
              "value": "MBH_200_contactepisode"
            }
          },
          {
            "url": "http://nictiz.nl/fhir/StructureDefinition/ext-MedicationUse2.Author",
            "valueReference": {
              "reference": "urn:uuid:c33f15cc-6a95-11ec-0000-020000000000",
              "type": "PractitionerRole",
              "display": "Healthcare professional (role), Peter van Pulver, Huisartsen, niet nader gespecificeerd"
            }
          }
        ],
        "identifier": [
          {
            "system": "urn:oid:2.16.840.1.113883.2.4.3.11.999.77.6.1",
            "value": "MBH_200_contactepisode_MGB"
          }
        ],
        "status": "active",
        "category": {
          "coding": [
            {
              "system": "http://snomed.info/sct",
              "code": "422979000",
              "display": "bevinding betreffende gedrag met betrekking tot medicatieregime"
            }
          ]
        },
        "medicationReference": {
          "reference": "urn:uuid:c33f1626-6a95-11ec-0000-020000000000",
          "type": "Medication",
          "display": "ACENOCOUMAROL TABLET 1MG"
        },
        "subject": {
          "reference": "urn:uuid:c33f15ae-6a95-11ec-0000-020000000000",
          "type": "Patient",
          "display": "Patient, H. XXX_Hoek"
        },
        "context": {
          "extension": [
            {
              "url": "http://nictiz.nl/fhir/StructureDefinition/ext-Context-EpisodeOfCare",
              "valueReference": {
                "type": "EpisodeOfCare",
                "identifier": {
                  "system": "urn:oid:2.16.840.1.113883.2.4.3.11.999.66.9200",
                  "value": "MBH_200_contactepisode_EPISODE1"
                },
                "display": "relatie naar zorgepisode met identificatie: MBH_200_contactepisode_EPISODE1 || 2.16.840.1.113883.2.4.3.11.999.66.9200"
              }
            }
          ],
          "type": "Encounter",
          "identifier": {
            "system": "urn:oid:2.16.840.1.113883.2.4.3.11.999.66.2709",
            "value": "MBH_200_contactepisode_CONTACT3"
          },
          "display": "relatie naar contact met identificatie: MBH_200_contactepisode_CONTACT3 || 2.16.840.1.113883.2.4.3.11.999.66.2709"
        },
        "effectivePeriod": {
          "start": "${DATE, T, D, -20}T00:00:00+02:00",
          "end": "${DATE, T, D, -9}T23:59:59+02:00"
        },
        "dateAsserted": "${DATE, T, D, -10}T09:56:05+02:00",
        "informationSource": {
          "reference": "urn:uuid:c33f15ae-6a95-11ec-0000-020000000000",
          "type": "Patient",
          "display": "Patient, H. XXX_Hoek"
        },
        "derivedFrom": [
          {
            "extension": [
              {
                "url": "http://nictiz.nl/fhir/StructureDefinition/ext-ResourceCategory",
                "valueCodeableConcept": {
                  "coding": [
                    {
                      "system": "http://snomed.info/sct",
                      "code": "33633005",
                      "display": "voorschrijven"
                    }
                  ]
                }
              }
            ],
            "identifier": {
              "system": "urn:oid:2.16.840.1.113883.2.4.3.11.999.77.16076005.1",
              "value": "MBH_200_contactepisode_MA"
            },
            "display": "relatie naar medicatieafspraak"
          }
        ],
        "dosage": [
          {
            "timing": {
              "repeat": {
                "extension": [
                  {
                    "url": "http://hl7.org/fhir/StructureDefinition/timing-exact",
                    "valueBoolean": false
                  }
                ],
                "frequency": 1,
                "period": 1,
                "periodUnit": "d"
              }
            },
            "route": {
              "coding": [
                {
                  "system": "urn:oid:2.16.840.1.113883.2.4.4.9",
                  "code": "9",
                  "display": "Oraal"
                }
              ]
            },
            "doseAndRate": [
              {
                "doseQuantity": {
                  "extension": [
                    {
                      "url": "http://hl7.org/fhir/StructureDefinition/iso21090-PQ-translation",
                      "valueQuantity": {
                        "value": 2,
                        "unit": "stuk",
                        "system": "urn:oid:2.16.840.1.113883.2.4.4.1.900.2",
                        "code": "245"
                      }
                    }
                  ],
                  "value": 2,
                  "unit": "stuk",
                  "system": "http://unitsofmeasure.org",
                  "code": "1"
                }
              }
            ]
          }
        ]
      },
      "request": {
        "method": "POST",
        "url": "MedicationStatement"
      }
    },
    {
      "fullUrl": "urn:uuid:c33f15ae-6a95-11ec-0000-020000000000",
      "resource": {
        "resourceType": "Patient",
        "id": "nl-core-Patient-mp9-H-XXX-Hoek",
        "meta": {
          "profile": [
            "http://nictiz.nl/fhir/StructureDefinition/nl-core-Patient"
          ]
        },
        "identifier": [
          {
            "system": "http://fhir.nl/fhir/NamingSystem/bsn",
            "value": "999900638"
          }
        ],
        "name": [
          {
            "extension": [
              {
                "url": "http://hl7.org/fhir/StructureDefinition/humanname-assembly-order",
                "valueCode": "NL1"
              }
            ],
            "use": "official",
            "text": "H. XXX_Hoek",
            "family": "XXX_Hoek",
            "_family": {
              "extension": [
                {
                  "url": "http://hl7.org/fhir/StructureDefinition/humanname-own-name",
                  "valueString": "XXX_Hoek"
                }
              ]
            },
            "given": [
              "H."
            ],
            "_given": [
              {
                "extension": [
                  {
                    "url": "http://hl7.org/fhir/StructureDefinition/iso21090-EN-qualifier",
                    "valueCode": "IN"
                  }
                ]
              }
            ]
          }
        ],
        "gender": "male",
        "_gender": {
          "extension": [
            {
              "url": "http://nictiz.nl/fhir/StructureDefinition/ext-CodeSpecification",
              "valueCodeableConcept": {
                "coding": [
                  {
                    "system": "http://terminology.hl7.org/CodeSystem/v3-AdministrativeGender",
                    "code": "M",
                    "display": "Man"
                  }
                ]
              }
            }
          ]
        },
        "birthDate": "1963-11-05"
      },
      "request": {
        "method": "POST",
        "url": "Patient"
      }
    },
    {
      "fullUrl": "urn:uuid:c33f15cc-6a95-11ec-0000-020000000000",
      "resource": {
        "resourceType": "PractitionerRole",
        "id": "nl-core-HPrf-PracRol-mp9-000001111-0100-00001111",
        "meta": {
          "profile": [
            "http://nictiz.nl/fhir/StructureDefinition/nl-core-HealthProfessional-PractitionerRole"
          ]
        },
        "practitioner": {
          "reference": "urn:uuid:c33f15ea-6a95-11ec-0000-020000000000",
          "type": "Practitioner",
          "display": "Healthcare professional (person), Peter van Pulver"
        },
        "organization": {
          "reference": "urn:uuid:c33f1644-6a95-11ec-0000-020000000000",
          "type": "Organization",
          "display": "Healthcare provider (organization), Huisartsenpraktijk Pulver & Partners"
        },
        "specialty": [
          {
            "coding": [
              {
                "system": "urn:oid:2.16.840.1.113883.2.4.6.7",
                "version": "2020-10-23T00:00:00",
                "code": "0100",
                "display": "Huisartsen, niet nader gespecificeerd"
              }
            ]
          }
        ]
      },
      "request": {
        "method": "POST",
        "url": "PractitionerRole"
      }
    },
    {
      "fullUrl": "urn:uuid:c33f15ea-6a95-11ec-0000-020000000000",
      "resource": {
        "resourceType": "Practitioner",
        "id": "nl-core-HPrf-Prac-mp9-2165281100731-000001111",
        "meta": {
          "profile": [
            "http://nictiz.nl/fhir/StructureDefinition/nl-core-HealthProfessional-Practitioner"
          ]
        },
        "identifier": [
          {
            "system": "http://fhir.nl/fhir/NamingSystem/uzi-nr-pers",
            "value": "000001111"
          }
        ],
        "name": [
          {
            "use": "official",
            "text": "Peter van Pulver",
            "family": "van Pulver",
            "_family": {
              "extension": [
                {
                  "url": "http://hl7.org/fhir/StructureDefinition/humanname-own-prefix",
                  "valueString": "van"
                },
                {
                  "url": "http://hl7.org/fhir/StructureDefinition/humanname-own-name",
                  "valueString": "Pulver"
                }
              ]
            },
            "given": [
              "Peter"
            ],
            "_given": [
              {
                "extension": [
                  {
                    "url": "http://hl7.org/fhir/StructureDefinition/iso21090-EN-qualifier",
                    "valueCode": "BR"
                  }
                ]
              }
            ]
          }
        ]
      },
      "request": {
        "method": "POST",
        "url": "Practitioner"
      }
    },
    {
      "fullUrl": "urn:uuid:c33f1644-6a95-11ec-0000-020000000000",
      "resource": {
        "resourceType": "Organization",
        "id": "nl-core-HPrv-Org-mp9-2165281100733-00001111",
        "meta": {
          "profile": [
            "http://nictiz.nl/fhir/StructureDefinition/nl-core-HealthcareProvider-Organization"
          ]
        },
        "identifier": [
          {
            "system": "http://fhir.nl/fhir/NamingSystem/ura",
            "value": "00001111"
          }
        ],
        "name": "Huisartsenpraktijk Pulver & Partners",
        "address": [
          {
            "extension": [
              {
                "url": "http://nictiz.nl/fhir/StructureDefinition/ext-AddressInformation.AddressType",
                "valueCodeableConcept": {
                  "coding": [
                    {
                      "system": "http://terminology.hl7.org/CodeSystem/v3-AddressUse",
                      "code": "WP",
                      "display": "Werkadres"
                    }
                  ]
                }
              }
            ],
            "use": "work",
            "line": [
              "Dorpsstraat 1"
            ],
            "_line": [
              {
                "extension": [
                  {
                    "url": "http://hl7.org/fhir/StructureDefinition/iso21090-ADXP-streetName",
                    "valueString": "Dorpsstraat"
                  },
                  {
                    "url": "http://hl7.org/fhir/StructureDefinition/iso21090-ADXP-houseNumber",
                    "valueString": "1"
                  }
                ]
              }
            ],
            "city": "Ons Dorp",
            "postalCode": "1234AA"
          }
        ]
      },
      "request": {
        "method": "POST",
        "url": "Organization"
      }
    },
    {
      "fullUrl": "urn:uuid:c33f1626-6a95-11ec-0000-020000000000",
      "resource": {
        "resourceType": "Medication",
        "id": "nl-core-PhPrd-mp9-216840111388324410-7323",
        "meta": {
          "profile": [
            "http://nictiz.nl/fhir/StructureDefinition/nl-core-PharmaceuticalProduct"
          ]
        },
        "code": {
          "coding": [
            {
              "system": "urn:oid:2.16.840.1.113883.2.4.4.10",
              "code": "7323",
              "display": "ACENOCOUMAROL TABLET 1MG",
              "userSelected": true
            },
            {
              "system": "urn:oid:2.16.840.1.113883.2.4.4.1",
              "code": "20303",
              "display": "ACENOCOUMAROL TABLET 1MG"
            }
          ],
          "text": "ACENOCOUMAROL TABLET 1MG"
        }
      },
      "request": {
        "method": "POST",
        "url": "Medication"
      }
    }
  ]
}