<?xml version="1.0" encoding="UTF-8"?>
<?xml-model href="http://hl7.org/fhir/STU3/bundle.sch" type="application/xml" schematypens="http://purl.oclc.org/dsdl/schematron"?>
<Bundle xmlns="http://hl7.org/fhir" xmlns:xsi="http://www.w3.org/2001/XMLSchema-instance" xsi:schemaLocation="http://hl7.org/fhir http://hl7.org/fhir/STU3/bundle.xsd">
	<type value="searchset"/>
	<total value="14"/>
	<entry>
		<fullUrl value="urn:uuid:6ACCB777-AAD4-11E8-9914-09173F13E4C5"/>
		<resource>
			<Patient>
				<meta>
					<profile value="http://fhir.nl/fhir/StructureDefinition/nl-core-patient"/>
				</meta>
				<identifier>
					<system value="http://fhir.nl/fhir/NamingSystem/bsn"/>
					<value value="999911764"/>
				</identifier>
				<identifier>
					<system value="urn:oid:2.16.840.1.113883.2.4.3.11.999.77.19829.1"/>
					<value value="51107"/>
				</identifier>
				<name>
					<extension url="http://hl7.org/fhir/StructureDefinition/humanname-assembly-order">
						<valueCode value="NL1"/>
					</extension>
					<family value="XXX_Amaya">
						<extension url="http://hl7.org/fhir/StructureDefinition/humanname-own-name">
							<valueString value="XXX_Amaya"/>
						</extension>
					</family>
					<given value="J.">
						<extension url="http://hl7.org/fhir/StructureDefinition/iso21090-EN-qualifier">
							<valueCode value="IN"/>
						</extension>
					</given>
				</name>
				<gender value="other"/>
				<birthDate value="1964-08-06"/>
			</Patient>
		</resource>
	</entry>
	<entry>
		<fullUrl value="urn:oid:2.16.528.1.1007.3.1.999001112"/>
		<resource>
			<Practitioner>
				<meta>
					<profile value="http://fhir.nl/fhir/StructureDefinition/nl-core-practitioner"/>
				</meta>
				<identifier>
					<system value="http://fhir.nl/fhir/NamingSystem/uzi-nr-pers"/>
					<value value="999001112"/>
				</identifier>
				<name>
					<family value="van Doorn">
						<extension url="http://hl7.org/fhir/StructureDefinition/humanname-own-prefix">
							<valueString value="van"/>
						</extension>
						<extension url="http://hl7.org/fhir/StructureDefinition/humanname-own-name">
							<valueString value="Doorn"/>
						</extension>
					</family>
					<given value="Hans">
						<extension url="http://hl7.org/fhir/StructureDefinition/iso21090-EN-qualifier">
							<valueCode value="BR"/>
						</extension>
					</given>
				</name>
			</Practitioner>
		</resource>
	</entry>
	<entry>
		<fullUrl value="urn:oid:2.16.528.1.1007.3.1.000001111"/>
		<resource>
			<Practitioner>
				<meta>
					<profile value="http://fhir.nl/fhir/StructureDefinition/nl-core-practitioner"/>
				</meta>
				<identifier>
					<system value="http://fhir.nl/fhir/NamingSystem/uzi-nr-pers"/>
					<value value="000001111"/>
				</identifier>
				<name>
					<family value="van Pulver">
						<extension url="http://hl7.org/fhir/StructureDefinition/humanname-own-prefix">
							<valueString value="van"/>
						</extension>
						<extension url="http://hl7.org/fhir/StructureDefinition/humanname-own-name">
							<valueString value="Pulver"/>
						</extension>
					</family>
					<given value="Peter">
						<extension url="http://hl7.org/fhir/StructureDefinition/iso21090-EN-qualifier">
							<valueCode value="BR"/>
						</extension>
					</given>
				</name>
			</Practitioner>
		</resource>
	</entry>
	<entry>
		<fullUrl value="urn:oid:2.16.528.1.1007.3.3.99901111"/>
		<resource>
			<Organization>
				<meta>
					<profile value="http://fhir.nl/fhir/StructureDefinition/nl-core-organization"/>
				</meta>
				<identifier>
					<system value="http://fhir.nl/fhir/NamingSystem/ura"/>
					<value value="99901111"/>
				</identifier>
				<name value="Ziekenhuis Stitswerd"/>
			</Organization>
		</resource>
	</entry>
	<entry>
		<fullUrl value="urn:oid:2.16.528.1.1007.3.3.00001111"/>
		<resource>
			<Organization>
				<meta>
					<profile value="http://fhir.nl/fhir/StructureDefinition/nl-core-organization"/>
				</meta>
				<identifier>
					<system value="http://fhir.nl/fhir/NamingSystem/ura"/>
					<value value="00001111"/>
				</identifier>
				<name value="Huisartsenpraktijk Pulver &amp; Partners"/>
			</Organization>
		</resource>
	</entry>
	<entry>
		<fullUrl value="urn:uuid:6ACCB798-AAD4-11E8-9914-09173F13E4C5"/>
		<resource>
			<PractitionerRole>
				<meta>
					<profile value="http://fhir.nl/fhir/StructureDefinition/nl-core-practitionerrole"/>
				</meta>
				<practitioner>
					<reference value="urn:oid:2.16.528.1.1007.3.1.999001112"/>
					<display value="Hans van Doorn"/>
				</practitioner>
				<organization>
					<reference value="urn:oid:2.16.528.1.1007.3.3.99901111"/>
					<display value="Ziekenhuis Stitswerd"/>
				</organization>
				<specialty>
					<coding>
						<system value="urn:oid:2.16.840.1.113883.2.4.6.7"/>
						<code value="0313"/>
					</coding>
					<text value="Medisch specialisten, inwendige geneeskunde"/>
				</specialty>
			</PractitionerRole>
		</resource>
	</entry>
	<entry>
		<fullUrl value="urn:uuid:6ACCB79A-AAD4-11E8-9914-09173F13E4C5"/>
		<resource>
			<PractitionerRole>
				<meta>
					<profile value="http://fhir.nl/fhir/StructureDefinition/nl-core-practitionerrole"/>
				</meta>
				<practitioner>
					<reference value="urn:oid:2.16.528.1.1007.3.1.000001111"/>
					<display value="Peter van Pulver"/>
				</practitioner>
				<organization>
					<reference value="urn:oid:2.16.528.1.1007.3.3.00001111"/>
					<display value="Huisartsenpraktijk Pulver &amp; Partners"/>
				</organization>
				<specialty>
					<coding>
						<system value="urn:oid:2.16.840.1.113883.2.4.6.7"/>
						<code value="0100"/>
					</coding>
					<text value="Huisartsen, niet nader gespecificeerd"/>
				</specialty>
			</PractitionerRole>
		</resource>
	</entry>
	<entry>
		<fullUrl value="urn:uuid:6ACCB79D-AAD4-11E8-9914-09173F13E4C5"/>
		<resource>
			<MedicationStatement>
				<meta>
					<profile value="http://nictiz.nl/fhir/StructureDefinition/zib-MedicationUse"/>
				</meta>
				<extension url="http://nictiz.nl/fhir/StructureDefinition/zib-MedicationUse-Prescriber">
					<extension url="agent">
						<valueReference>
							<reference value="urn:uuid:6ACCB798-AAD4-11E8-9914-09173F13E4C5"/>
							<display value="Hans van Doorn || Medisch specialisten, inwendige geneeskunde || Ziekenhuis Stitswerd"/>
						</valueReference>
					</extension>
				</extension>
				<extension url="http://nictiz.nl/fhir/StructureDefinition/zib-MedicationUse-Author">
					<valueReference>
						<reference value="urn:uuid:6ACCB798-AAD4-11E8-9914-09173F13E4C5"/>
						<display value="Hans van Doorn || Medisch specialisten, inwendige geneeskunde || Ziekenhuis Stitswerd"/>
					</valueReference>
				</extension>
				<extension url="http://nictiz.nl/fhir/StructureDefinition/zib-Medication-MedicationTreatment">
					<valueIdentifier>
						<system value="urn:oid:2.16.840.1.113883.2.4.3.11.999.77.6.1"/>
						<value value="MBH_513_2"/>
					</valueIdentifier>
				</extension>
				<identifier>
					<system value="urn:oid:2.16.840.1.113883.2.4.3.11.999.77.6.1"/>
					<value value="MBH_513_2_MGB_1"/>
				</identifier>
				<status value="active"/>
				<category>
					<coding>
						<system value="urn:oid:2.16.840.1.113883.2.4.3.11.60.20.77.5.3"/>
						<code value="6"/>
						<display value="Medicatiegebruik"/>
					</coding>
				</category>
				<medicationCodeableConcept>
					<coding>
						<system value="urn:oid:2.16.840.1.113883.2.4.4.10"/>
						<code value="5967"/>
					</coding>
					<text value="Furosemide tablet 40mg"/>
				</medicationCodeableConcept>
				<effectivePeriod>
					<start value="2018-08-14T00:00:00+02:00"/>
				</effectivePeriod>
				<dateAsserted value="2018-08-14T15:39:00+02:00"/>
				<subject>
					<reference value="urn:uuid:6ACCB777-AAD4-11E8-9914-09173F13E4C5"/>
					<display value="J. XXX_Amaya"/>
				</subject>
				<derivedFrom>
					<identifier>
						<system value="urn:oid:2.16.840.1.113883.2.4.3.11.999.77.16076005.1"/>
						<value value="MBH_513_2_MA_1"/>
					</identifier>
					<display value="relatie naar medicatieafspraak"/>
				</derivedFrom>
				<taken value="y"/>
				<dosage>
					<sequence value="1"/>
					<text value="Vanaf T-2, tot nader order, 1 maal daags 1 stuk, oraal"/>
					<timing>
						<repeat>
							<frequency value="1"/>
							<period value="1"/>
							<periodUnit value="d"/>
						</repeat>
					</timing>
					<route>
						<coding>
							<system value="urn:oid:2.16.840.1.113883.2.4.4.9"/>
							<code value="9"/>
						</coding>
						<text value="Oraal"/>
					</route>
					<doseQuantity>
						<value value="1"/>
						<unit value="stuk"/>
						<system value="urn:oid:2.16.840.1.113883.2.4.4.1.900.2"/>
						<code value="245"/>
					</doseQuantity>
				</dosage>
			</MedicationStatement>
		</resource>
	</entry>
	<entry>
		<fullUrl value="urn:uuid:6ACCB79F-AAD4-11E8-9914-09173F13E4C5"/>
		<resource>
			<RelatedPerson>
				<meta>
					<profile value="http://fhir.nl/fhir/StructureDefinition/nl-core-relatedperson"/>
				</meta>
				<extension url="http://fhir.nl/fhir/StructureDefinition/nl-core-relatedperson-role">
					<valueCodeableConcept>
						<coding>
							<system value="http://snomed.info/sct"/>
							<code value="407542009"/>
						</coding>
						<text value="Mantelzorger"/>
					</valueCodeableConcept>
				</extension>
				<patient>
					<reference value="urn:uuid:6ACCB777-AAD4-11E8-9914-09173F13E4C5"/>
					<display value="J. XXX_Amaya"/>
				</patient>
				<name>
					<family value="XXX_Amaya">
						<extension url="http://hl7.org/fhir/StructureDefinition/humanname-own-name">
							<valueString value="XXX_Amaya"/>
						</extension>
					</family>
					<given value="M.">
						<extension url="http://hl7.org/fhir/StructureDefinition/iso21090-EN-qualifier">
							<valueCode value="IN"/>
						</extension>
					</given>
				</name>
			</RelatedPerson>
		</resource>
	</entry>
	<entry>
		<fullUrl value="urn:uuid:6ACCB7A1-AAD4-11E8-9914-09173F13E4C5"/>
		<resource>
			<MedicationStatement>
				<meta>
					<profile value="http://nictiz.nl/fhir/StructureDefinition/zib-MedicationUse"/>
				</meta>
				<extension url="http://nictiz.nl/fhir/StructureDefinition/zib-MedicationUse-Prescriber">
					<extension url="agent">
						<valueReference>
							<reference value="urn:uuid:6ACCB798-AAD4-11E8-9914-09173F13E4C5"/>
							<display value="Hans van Doorn || Huisartsen, niet nader gespecificeerd || Ziekenhuis Stitswerd"/>
						</valueReference>
					</extension>
				</extension>
				<extension url="http://nictiz.nl/fhir/StructureDefinition/zib-MedicationUse-Author">
					<valueReference>
						<reference value="urn:uuid:6ACCB798-AAD4-11E8-9914-09173F13E4C5"/>
						<display value="Hans van Doorn || Medisch specialisten, inwendige geneeskunde || Ziekenhuis Stitswerd"/>
					</valueReference>
				</extension>
				<extension url="http://nictiz.nl/fhir/StructureDefinition/zib-Medication-MedicationTreatment">
					<valueIdentifier>
						<system value="urn:oid:2.16.840.1.113883.2.4.3.11.999.77.6.1"/>
						<value value="MBH_513_2"/>
					</valueIdentifier>
				</extension>
				<identifier>
					<system value="urn:oid:2.16.840.1.113883.2.4.3.11.999.77.6.1"/>
					<value value="MBH_513_2_MGB_2"/>
				</identifier>
				<status value="active"/>
				<category>
					<coding>
						<system value="urn:oid:2.16.840.1.113883.2.4.3.11.60.20.77.5.3"/>
						<code value="6"/>
						<display value="Medicatiegebruik"/>
					</coding>
				</category>
				<medicationCodeableConcept>
					<coding>
						<system value="urn:oid:2.16.840.1.113883.2.4.4.10"/>
						<code value="5967"/>
					</coding>
					<text value="Furosemide tablet 40mg"/>
				</medicationCodeableConcept>
				<effectivePeriod>
					<start value="2018-08-15T00:00:00+02:00"/>
				</effectivePeriod>
				<dateAsserted value="2018-08-16T20:40:00+02:00"/>
				<informationSource>
					<reference value="urn:uuid:6ACCB79F-AAD4-11E8-9914-09173F13E4C5"/>
					<display value="M. XXX_Amaya"/>
				</informationSource>
				<subject>
					<reference value="urn:uuid:6ACCB777-AAD4-11E8-9914-09173F13E4C5"/>
					<display value="J. XXX_Amaya"/>
				</subject>
				<derivedFrom>
					<identifier>
						<system value="urn:oid:2.16.840.1.113883.2.4.3.11.999.77.16076005.1"/>
						<value value="MBH_513_2_MA_1"/>
					</identifier>
					<display value="relatie naar medicatieafspraak"/>
				</derivedFrom>
				<taken value="y"/>
				<dosage>
					<sequence value="1"/>
					<text value="Vanaf T-1, tot nader order, 1 maal daags 1 stuk, oraal"/>
					<timing>
						<repeat>
							<frequency value="1"/>
							<period value="1"/>
							<periodUnit value="d"/>
						</repeat>
					</timing>
					<route>
						<coding>
							<system value="urn:oid:2.16.840.1.113883.2.4.4.9"/>
							<code value="9"/>
						</coding>
						<text value="Oraal"/>
					</route>
					<doseQuantity>
						<value value="1"/>
						<unit value="stuk"/>
						<system value="urn:oid:2.16.840.1.113883.2.4.4.1.900.2"/>
						<code value="245"/>
					</doseQuantity>
				</dosage>
			</MedicationStatement>
		</resource>
	</entry>
	<entry>
		<fullUrl value="urn:uuid:6ACCB7A3-AAD4-11E8-9914-09173F13E4C5"/>
		<resource>
			<MedicationStatement>
				<meta>
					<profile value="http://nictiz.nl/fhir/StructureDefinition/zib-MedicationUse"/>
				</meta>
				<extension url="http://nictiz.nl/fhir/StructureDefinition/zib-MedicationUse-Author">
					<valueReference>
						<reference value="urn:uuid:6ACCB798-AAD4-11E8-9914-09173F13E4C5"/>
						<display value="Hans van Doorn || Medisch specialisten, inwendige geneeskunde || Ziekenhuis Stitswerd"/>
					</valueReference>
				</extension>
				<extension url="http://nictiz.nl/fhir/StructureDefinition/zib-Medication-MedicationTreatment">
					<valueIdentifier>
						<system value="urn:oid:2.16.840.1.113883.2.4.3.11.999.77.6.1"/>
						<value value="MBH_513_2"/>
					</valueIdentifier>
				</extension>
				<identifier>
					<system value="urn:oid:2.16.840.1.113883.2.4.3.11.999.77.6.1"/>
					<value value="MBH_513_2_MGB_3"/>
				</identifier>
				<status value="active"/>
				<category>
					<coding>
						<system value="urn:oid:2.16.840.1.113883.2.4.3.11.60.20.77.5.3"/>
						<code value="6"/>
						<display value="Medicatiegebruik"/>
					</coding>
				</category>
				<medicationCodeableConcept>
					<coding>
						<system value="urn:oid:2.16.840.1.113883.2.4.4.10"/>
						<code value="5967"/>
					</coding>
					<text value="Furosemide tablet 40mg"/>
				</medicationCodeableConcept>
				<effectivePeriod>
					<start value="2018-08-16T00:00:00+02:00"/>
				</effectivePeriod>
				<dateAsserted value="2018-08-16T21:39:00+02:00"/>
				<informationSource>
					<reference value="urn:uuid:6ACCB79A-AAD4-11E8-9914-09173F13E4C5"/>
					<display value="Peter van Pulver || Huisartsen, niet nader gespecificeerd || Huisartsenpraktijk Pulver &amp; Partners"/>
				</informationSource>
				<subject>
					<reference value="urn:uuid:6ACCB777-AAD4-11E8-9914-09173F13E4C5"/>
					<display value="J. XXX_Amaya"/>
				</subject>
				<derivedFrom>
					<identifier>
						<system value="urn:oid:2.16.840.1.113883.2.4.3.11.999.77.16076005.1"/>
						<value value="MBH_513_2_MA_1"/>
					</identifier>
					<display value="relatie naar medicatieafspraak"/>
				</derivedFrom>
				<taken value="y"/>
				<dosage>
					<sequence value="1"/>
					<text value="Vanaf T, tot nader order, 1 maal daags 1 stuk, oraal"/>
					<timing>
						<repeat>
							<frequency value="1"/>
							<period value="1"/>
							<periodUnit value="d"/>
						</repeat>
					</timing>
					<route>
						<coding>
							<system value="urn:oid:2.16.840.1.113883.2.4.4.9"/>
							<code value="9"/>
						</coding>
						<text value="Oraal"/>
					</route>
					<doseQuantity>
						<value value="1"/>
						<unit value="stuk"/>
						<system value="urn:oid:2.16.840.1.113883.2.4.4.1.900.2"/>
						<code value="245"/>
					</doseQuantity>
				</dosage>
			</MedicationStatement>
		</resource>
	</entry>
	<entry>
		<fullUrl value="urn:uuid:6ACCB7A5-AAD4-11E8-9914-09173F13E4C5"/>
		<resource>
			<MedicationStatement>
				<meta>
					<profile value="http://nictiz.nl/fhir/StructureDefinition/zib-MedicationUse"/>
				</meta>
				<extension url="http://nictiz.nl/fhir/StructureDefinition/zib-MedicationUse-Author">
					<valueReference>
						<reference value="urn:uuid:6ACCB777-AAD4-11E8-9914-09173F13E4C5"/>
						<display value="J. XXX_Amaya"/>
					</valueReference>
				</extension>
				<extension url="http://nictiz.nl/fhir/StructureDefinition/zib-Medication-MedicationTreatment">
					<valueIdentifier>
						<system value="urn:oid:2.16.840.1.113883.2.4.3.11.999.77.6.1"/>
						<value value="MBH_5132_2"/>
					</valueIdentifier>
				</extension>
				<identifier>
					<system value="urn:oid:2.16.840.1.113883.2.4.3.11.999.77.6.1"/>
					<value value="MBH_5132_2_MGB_2"/>
				</identifier>
				<status value="active"/>
				<category>
					<coding>
						<system value="urn:oid:2.16.840.1.113883.2.4.3.11.60.20.77.5.3"/>
						<code value="6"/>
						<display value="Medicatiegebruik"/>
					</coding>
				</category>
				<medicationCodeableConcept>
					<coding>
						<system value="urn:oid:2.16.840.1.113883.2.4.4.8"/>
						<code value="13806769"/>
					</coding>
					<text value="TEMAZEPAM APOTEX TABLET 10MG"/>
				</medicationCodeableConcept>
				<effectivePeriod>
					<extension url="http://nictiz.nl/fhir/StructureDefinition/zib-MedicationUse-Duration">
						<valueDuration>
							<value value="1"/>
							<unit value="dag"/>
							<system value="http://unitsofmeasure.org"/>
							<code value="d"/>
						</valueDuration>
					</extension>
					<start value="2018-08-16T00:00:00+02:00"/>
				</effectivePeriod>
				<dateAsserted value="2018-08-16T20:59:00+02:00"/>
				<subject>
					<reference value="urn:uuid:6ACCB777-AAD4-11E8-9914-09173F13E4C5"/>
					<display value="J. XXX_Amaya"/>
				</subject>
				<derivedFrom>
					<identifier>
						<system value="urn:oid:2.16.840.1.113883.2.4.3.11.999.77.373784005.1"/>
						<value value="MBH_5132_2_MVE_1"/>
					</identifier>
					<display value="relatie naar verstrekking"/>
				</derivedFrom>
				<taken value="y"/>
				<dosage>
					<sequence value="1"/>
					<text value="Vanaf T, gedurende 1 dag, 1 maal daags 1 stuk, oraal"/>
					<timing>
						<repeat>
							<frequency value="1"/>
							<period value="1"/>
							<periodUnit value="d"/>
						</repeat>
					</timing>
					<route>
						<coding>
							<system value="urn:oid:2.16.840.1.113883.2.4.4.9"/>
							<code value="9"/>
						</coding>
						<text value="Oraal"/>
					</route>
					<doseQuantity>
						<value value="1"/>
						<unit value="stuk"/>
						<system value="urn:oid:2.16.840.1.113883.2.4.4.1.900.2"/>
						<code value="245"/>
					</doseQuantity>
				</dosage>
			</MedicationStatement>
		</resource>
	</entry>
	<entry>
		<fullUrl value="urn:uuid:6ACCB7A7-AAD4-11E8-9914-09173F13E4C5"/>
		<resource>
			<MedicationStatement>
				<meta>
					<profile value="http://nictiz.nl/fhir/StructureDefinition/zib-MedicationUse"/>
				</meta>
				<extension url="http://nictiz.nl/fhir/StructureDefinition/zib-MedicationUse-Prescriber">
					<extension url="agent">
						<valueReference>
							<reference value="urn:uuid:6ACCB798-AAD4-11E8-9914-09173F13E4C5"/>
							<display value="Hans van Doorn || Medisch specialisten, inwendige geneeskunde || Ziekenhuis Stitswerd"/>
						</valueReference>
					</extension>
				</extension>
				<extension url="http://nictiz.nl/fhir/StructureDefinition/zib-MedicationUse-Author">
					<valueReference>
						<reference value="urn:uuid:6ACCB777-AAD4-11E8-9914-09173F13E4C5"/>
						<display value="J. XXX_Amaya"/>
					</valueReference>
				</extension>
				<extension url="http://nictiz.nl/fhir/StructureDefinition/zib-Medication-MedicationTreatment">
					<valueIdentifier>
						<system value="urn:oid:2.16.840.1.113883.2.4.3.11.999.77.6.1"/>
						<value value="MBH_513_3"/>
					</valueIdentifier>
				</extension>
				<identifier>
					<system value="urn:oid:2.16.840.1.113883.2.4.3.11.999.77.6.1"/>
					<value value="MBH_513_3_MGB_2"/>
				</identifier>
				<status value="active"/>
				<category>
					<coding>
						<system value="urn:oid:2.16.840.1.113883.2.4.3.11.60.20.77.5.3"/>
						<code value="6"/>
						<display value="Medicatiegebruik"/>
					</coding>
				</category>
				<medicationCodeableConcept>
					<coding>
						<system value="urn:oid:2.16.840.1.113883.2.4.4.10"/>
						<code value="6009"/>
					</coding>
					<text value="Methotrexaat tablet 2,5mg"/>
				</medicationCodeableConcept>
				<effectivePeriod>
					<start value="2018-08-08T00:00:00+02:00"/>
					<end value="2018-08-13T23:59:00+02:00"/>
				</effectivePeriod>
				<dateAsserted value="2018-08-13T20:59:00+02:00"/>
				<subject>
					<reference value="urn:uuid:6ACCB777-AAD4-11E8-9914-09173F13E4C5"/>
					<display value="J. XXX_Amaya"/>
				</subject>
				<derivedFrom>
					<identifier>
						<system value="urn:oid:2.16.840.1.113883.2.4.3.11.999.77.16076005.1"/>
						<value value="MBH_513_3_MA_1"/>
					</identifier>
					<display value="relatie naar medicatieafspraak"/>
				</derivedFrom>
				<taken value="y"/>
				<reasonCode>
					<text value="Lymfekanker"/>
				</reasonCode>
				<dosage>
					<sequence value="1"/>
					<text value="Vanaf T -8 t/m T-3, 1 maal per week 5 stuks, oraal"/>
					<timing>
						<repeat>
							<frequency value="1"/>
							<period value="1"/>
							<periodUnit value="wk"/>
						</repeat>
					</timing>
					<doseQuantity>
						<value value="5"/>
						<unit value="stuk"/>
						<system value="urn:oid:2.16.840.1.113883.2.4.4.1.900.2"/>
						<code value="245"/>
					</doseQuantity>
				</dosage>
			</MedicationStatement>
		</resource>
	</entry>
	<entry>
		<fullUrl value="urn:uuid:6ACCB7A9-AAD4-11E8-9914-09173F13E4C5"/>
		<resource>
			<MedicationStatement>
				<meta>
					<profile value="http://nictiz.nl/fhir/StructureDefinition/zib-MedicationUse"/>
				</meta>
				<extension url="http://nictiz.nl/fhir/StructureDefinition/zib-MedicationUse-AsAgreedIndicator">
					<valueBoolean value="false"/>
				</extension>
				<extension url="http://nictiz.nl/fhir/StructureDefinition/zib-MedicationUse-Author">
					<valueReference>
						<reference value="urn:uuid:6ACCB777-AAD4-11E8-9914-09173F13E4C5"/>
						<display value="J. XXX_Amaya"/>
					</valueReference>
				</extension>
				<extension url="http://nictiz.nl/fhir/StructureDefinition/zib-Medication-MedicationTreatment">
					<valueIdentifier>
						<system value="urn:oid:2.16.840.1.113883.2.4.3.11.999.77.6.1"/>
						<value value="MBH_513_4"/>
					</valueIdentifier>
				</extension>
				<identifier>
					<system value="urn:oid:2.16.840.1.113883.2.4.3.11.999.77.6.1"/>
					<value value="MBH_513_4_MGB_1"/>
				</identifier>
				<status value="active"/>
				<category>
					<coding>
						<system value="urn:oid:2.16.840.1.113883.2.4.3.11.60.20.77.5.3"/>
						<code value="6"/>
						<display value="Medicatiegebruik"/>
					</coding>
				</category>
				<medicationCodeableConcept>
					<coding>
						<system value="urn:oid:2.16.840.1.113883.2.4.4.10"/>
						<code value="20044"/>
					</coding>
					<text value="AMOXICILLINE CAPSULE 250MG"/>
				</medicationCodeableConcept>
				<effectivePeriod>
					<start value="2018-08-11T00:00:00+02:00"/>
					<end value="2018-08-12T23:59:00+02:00"/>
				</effectivePeriod>
				<dateAsserted value="2018-08-12T22:35:00+02:00"/>
				<subject>
					<reference value="urn:uuid:6ACCB777-AAD4-11E8-9914-09173F13E4C5"/>
					<display value="J. XXX_Amaya"/>
				</subject>
				<derivedFrom>
					<identifier>
						<system value="urn:oid:2.16.840.1.113883.2.4.3.11.999.77.16076005.1"/>
						<value value="MBH_513_4_MA_1"/>
					</identifier>
					<display value="relatie naar medicatieafspraak"/>
				</derivedFrom>
				<taken value="y"/>
				<dosage>
					<sequence value="1"/>
					<text value="Vanaf T-5 t/m T-4, 1 maal per dag 1 stuk, oraal"/>
					<timing>
						<repeat>
							<frequency value="1"/>
							<period value="1"/>
							<periodUnit value="d"/>
						</repeat>
					</timing>
					<route>
						<coding>
							<system value="urn:oid:2.16.840.1.113883.2.4.4.9"/>
							<code value="9"/>
						</coding>
						<text value="Oraal"/>
					</route>
					<doseQuantity>
						<value value="1"/>
						<unit value="stuk"/>
						<system value="urn:oid:2.16.840.1.113883.2.4.4.1.900.2"/>
						<code value="245"/>
					</doseQuantity>
				</dosage>
			</MedicationStatement>
		</resource>
	</entry>
</Bundle>
