<?xml version="1.0" encoding="UTF-8"?>
<?xml-model href="http://hl7.org/fhir/STU3/bundle.sch" type="application/xml" schematypens="http://purl.oclc.org/dsdl/schematron"?>
<Bundle xmlns="http://hl7.org/fhir"
        xmlns:xsi="http://www.w3.org/2001/XMLSchema-instance"
        xsi:schemaLocation="http://hl7.org/fhir http://hl7.org/fhir/STU3/bundle.xsd">
   <type value="searchset"/>
   <total value="18"/>
   <entry>
      <fullUrl value="urn:uuid:D6528107-AFB6-11E8-1966-09173F13E4C5"/>
      <resource>
         <Patient>
            <meta>
               <profile value="http://fhir.nl/fhir/StructureDefinition/nl-core-patient"/>
            </meta>
            <identifier>
               <system value="http://fhir.nl/fhir/NamingSystem/bsn"/>
               <value value="999911764"/>
            </identifier>
            <identifier>
               <system value="urn:oid:2.16.840.1.113883.2.4.3.11.999.77.19829.1"/>
               <value value="51107"/>
            </identifier>
            <name>
               <extension url="http://hl7.org/fhir/StructureDefinition/humanname-assembly-order">
                  <valueCode value="NL1"/>
               </extension>
               <family value="XXX_Amaya">
                  <extension url="http://hl7.org/fhir/StructureDefinition/humanname-own-name">
                     <valueString value="XXX_Amaya"/>
                  </extension>
               </family>
               <given value="J.">
                  <extension url="http://hl7.org/fhir/StructureDefinition/iso21090-EN-qualifier">
                     <valueCode value="IN"/>
                  </extension>
               </given>
            </name>
            <gender value="male"/>
            <birthDate value="1964-08-06"/>
         </Patient>
      </resource>
   </entry>
   <entry>
      <fullUrl value="urn:oid:2.16.528.1.1007.3.1.000001111"/>
      <resource>
         <Practitioner>
            <meta>
               <profile value="http://fhir.nl/fhir/StructureDefinition/nl-core-practitioner"/>
            </meta>
            <identifier>
               <system value="http://fhir.nl/fhir/NamingSystem/uzi-nr-pers"/>
               <value value="000001111"/>
            </identifier>
            <name>
               <family value="van Pulver">
                  <extension url="http://hl7.org/fhir/StructureDefinition/humanname-own-prefix">
                     <valueString value="van"/>
                  </extension>
                  <extension url="http://hl7.org/fhir/StructureDefinition/humanname-own-name">
                     <valueString value="Pulver"/>
                  </extension>
               </family>
               <given value="Peter">
                  <extension url="http://hl7.org/fhir/StructureDefinition/iso21090-EN-qualifier">
                     <valueCode value="BR"/>
                  </extension>
               </given>
            </name>
         </Practitioner>
      </resource>
   </entry>
   <entry>
      <fullUrl value="urn:oid:2.16.528.1.1007.3.1.000001112"/>
      <resource>
         <Practitioner>
            <meta>
               <profile value="http://fhir.nl/fhir/StructureDefinition/nl-core-practitioner"/>
            </meta>
            <identifier>
               <system value="http://fhir.nl/fhir/NamingSystem/uzi-nr-pers"/>
               <value value="000001112"/>
            </identifier>
            <name>
               <family value="van Doorn">
                  <extension url="http://hl7.org/fhir/StructureDefinition/humanname-own-prefix">
                     <valueString value="van"/>
                  </extension>
                  <extension url="http://hl7.org/fhir/StructureDefinition/humanname-own-name">
                     <valueString value="Doorn"/>
                  </extension>
               </family>
               <given value="Bertine">
                  <extension url="http://hl7.org/fhir/StructureDefinition/iso21090-EN-qualifier">
                     <valueCode value="BR"/>
                  </extension>
               </given>
            </name>
         </Practitioner>
      </resource>
   </entry>
   <entry>
      <fullUrl value="urn:oid:2.16.528.1.1007.3.1.999001112"/>
      <resource>
         <Practitioner>
            <meta>
               <profile value="http://fhir.nl/fhir/StructureDefinition/nl-core-practitioner"/>
            </meta>
            <identifier>
               <system value="http://fhir.nl/fhir/NamingSystem/uzi-nr-pers"/>
               <value value="999001112"/>
            </identifier>
            <name>
               <family value="van Doorn">
                  <extension url="http://hl7.org/fhir/StructureDefinition/humanname-own-prefix">
                     <valueString value="van"/>
                  </extension>
                  <extension url="http://hl7.org/fhir/StructureDefinition/humanname-own-name">
                     <valueString value="Doorn"/>
                  </extension>
               </family>
               <given value="Hans">
                  <extension url="http://hl7.org/fhir/StructureDefinition/iso21090-EN-qualifier">
                     <valueCode value="BR"/>
                  </extension>
               </given>
            </name>
         </Practitioner>
      </resource>
   </entry>
   <entry>
      <fullUrl value="urn:oid:2.16.528.1.1007.3.3.00001111"/>
      <resource>
         <Organization>
            <meta>
               <profile value="http://fhir.nl/fhir/StructureDefinition/nl-core-organization"/>
            </meta>
            <identifier>
               <system value="http://fhir.nl/fhir/NamingSystem/ura"/>
               <value value="00001111"/>
            </identifier>
            <name value="Huisartsenpraktijk Pulver &amp; Partners"/>
         </Organization>
      </resource>
   </entry>
   <entry>
      <fullUrl value="urn:oid:2.16.528.1.1007.3.3.99901111"/>
      <resource>
         <Organization>
            <meta>
               <profile value="http://fhir.nl/fhir/StructureDefinition/nl-core-organization"/>
            </meta>
            <identifier>
               <system value="http://fhir.nl/fhir/NamingSystem/ura"/>
               <value value="99901111"/>
            </identifier>
            <name value="Ziekenhuis Stitswerd"/>
         </Organization>
      </resource>
   </entry>
   <entry>
      <fullUrl value="urn:uuid:D6528129-AFB6-11E8-1966-09173F13E4C5"/>
      <resource>
         <PractitionerRole>
            <meta>
               <profile value="http://fhir.nl/fhir/StructureDefinition/nl-core-practitionerrole"/>
            </meta>
            <practitioner>
               <reference value="urn:oid:2.16.528.1.1007.3.1.000001111"/>
               <display value="Peter van Pulver"/>
            </practitioner>
            <organization>
               <reference value="urn:oid:2.16.528.1.1007.3.3.00001111"/>
               <display value="Huisartsenpraktijk Pulver &amp; Partners"/>
            </organization>
            <specialty>
               <coding>
                  <system value="urn:oid:2.16.840.1.113883.2.4.6.7"/>
                  <code value="0100"/>
               </coding>
               <text value="Huisartsen, niet nader gespecificeerd"/>
            </specialty>
         </PractitionerRole>
      </resource>
   </entry>
   <entry>
      <fullUrl value="urn:uuid:D652812B-AFB6-11E8-1966-09173F13E4C5"/>
      <resource>
         <PractitionerRole>
            <meta>
               <profile value="http://fhir.nl/fhir/StructureDefinition/nl-core-practitionerrole"/>
            </meta>
            <practitioner>
               <reference value="urn:oid:2.16.528.1.1007.3.1.000001112"/>
               <display value="Bertine van Doorn"/>
            </practitioner>
            <organization>
               <reference value="urn:oid:2.16.528.1.1007.3.3.00001111"/>
               <display value="Huisartsenpraktijk Pulver &amp; Partners"/>
            </organization>
            <specialty>
               <coding>
                  <system value="urn:oid:2.16.840.1.113883.2.4.6.7"/>
                  <code value="0100"/>
               </coding>
               <text value="Huisartsen, niet nader gespecificeerd"/>
            </specialty>
         </PractitionerRole>
      </resource>
   </entry>
   <entry>
      <fullUrl value="urn:uuid:D652812D-AFB6-11E8-1966-09173F13E4C5"/>
      <resource>
         <PractitionerRole>
            <meta>
               <profile value="http://fhir.nl/fhir/StructureDefinition/nl-core-practitionerrole"/>
            </meta>
            <practitioner>
               <reference value="urn:oid:2.16.528.1.1007.3.1.999001112"/>
               <display value="Hans van Doorn"/>
            </practitioner>
            <organization>
               <reference value="urn:oid:2.16.528.1.1007.3.3.99901111"/>
               <display value="Ziekenhuis Stitswerd"/>
            </organization>
            <specialty>
               <coding>
                  <system value="urn:oid:2.16.840.1.113883.2.4.6.7"/>
                  <code value="0313"/>
               </coding>
               <text value="Medisch specialisten, inwendige geneeskunde"/>
            </specialty>
         </PractitionerRole>
      </resource>
   </entry>
   <entry>
      <fullUrl value="urn:uuid:D6528130-AFB6-11E8-1966-09173F13E4C5"/>
      <resource>
         <MedicationRequest>
            <meta>
               <profile value="http://nictiz.nl/fhir/StructureDefinition/zib-MedicationAgreement"/>
            </meta>
            <extension url="http://nictiz.nl/fhir/StructureDefinition/zib-Medication-PeriodOfUse">
               <valuePeriod>
                  <start value="2018-08-15T00:00:00+02:00"/>
               </valuePeriod>
            </extension>
            <extension url="http://nictiz.nl/fhir/StructureDefinition/zib-MedicationUse-Duration">
               <valueDuration>
                  <value value="60"/>
                  <unit value="dag"/>
                  <system value="http://unitsofmeasure.org"/>
                  <code value="d"/>
               </valueDuration>
            </extension>
            <extension url="http://nictiz.nl/fhir/StructureDefinition/zib-Medication-MedicationTreatment">
               <valueIdentifier>
                  <system value="urn:oid:2.16.840.1.113883.2.4.3.11.999.77.1.1"/>
                  <value value="MBH_513_1"/>
               </valueIdentifier>
            </extension>
            <identifier>
               <system value="urn:oid:2.16.840.1.113883.2.4.3.11.999.77.16076005.1"/>
               <value value="MBH_513_1_MA_1"/>
            </identifier>
            <status value="entered-in-error"/>
            <intent value="order"/>
            <category>
               <coding>
                  <system value="http://snomed.info/sct"/>
                  <code value="16076005"/>
                  <display value="Prescription (procedure)"/>
               </coding>
               <text value="Medicatieafspraak"/>
            </category>
            <medicationCodeableConcept>
               <coding>
                  <system value="urn:oid:2.16.840.1.113883.2.4.4.10"/>
                  <code value="49484"/>
               </coding>
               <text value="Acetylsalicylzuur tabletmsr 100mg"/>
            </medicationCodeableConcept>
            <subject>
               <reference value="urn:uuid:D6528107-AFB6-11E8-1966-09173F13E4C5"/>
               <display value="J. XXX_Amaya"/>
            </subject>
            <authoredOn value="2018-08-15T11:25:00+02:00"/>
            <requester>
               <extension url="http://nictiz.nl/fhir/StructureDefinition/zib-MedicationAgreement-RequesterRole">
                  <valueReference>
                     <reference value="urn:uuid:D6528129-AFB6-11E8-1966-09173F13E4C5"/>
                     <display value="Peter van Pulver || Huisartsen, niet nader gespecificeerd || Huisartsenpraktijk Pulver &amp; Partners"/>
                  </valueReference>
               </extension>
               <agent>
                  <reference value="urn:oid:2.16.528.1.1007.3.1.000001111"/>
                  <display value="Peter van Pulver"/>
               </agent>
            </requester>
            <reasonCode>
               <coding>
                  <system value="http://snomed.info/sct"/>
                  <code value="266709005"/>
               </coding>
               <text value="Starten medicamenteuze behandeling"/>
            </reasonCode>
            <dosageInstruction>
               <sequence value="1"/>
               <text value="Vanaf T-1, gedurende 60 dagen, 10 maal per dag 1 stuk, oraal"/>
               <timing>
                  <repeat>
                     <frequency value="10"/>
                     <period value="1"/>
                     <periodUnit value="d"/>
                  </repeat>
               </timing>
               <route>
                  <coding>
                     <system value="urn:oid:2.16.840.1.113883.2.4.4.9"/>
                     <code value="9"/>
                  </coding>
                  <text value="Oraal"/>
               </route>
               <doseQuantity>
                  <value value="1"/>
                  <unit value="stuk"/>
                  <system value="urn:oid:2.16.840.1.113883.2.4.4.1.900.2"/>
                  <code value="245"/>
               </doseQuantity>
            </dosageInstruction>
         </MedicationRequest>
      </resource>
   </entry>
   <entry>
      <fullUrl value="urn:uuid:D6528135-AFB6-11E8-1966-09173F13E4C5"/>
      <resource>
         <MedicationRequest>
            <meta>
               <profile value="http://nictiz.nl/fhir/StructureDefinition/zib-MedicationAgreement"/>
            </meta>
            <extension url="http://nictiz.nl/fhir/StructureDefinition/zib-Medication-PeriodOfUse">
               <valuePeriod>
                  <start value="2018-08-16T00:00:00+02:00"/>
               </valuePeriod>
            </extension>
            <extension url="http://nictiz.nl/fhir/StructureDefinition/zib-MedicationUse-Duration">
               <valueDuration>
                  <value value="60"/>
                  <unit value="dag"/>
                  <system value="http://unitsofmeasure.org"/>
                  <code value="d"/>
               </valueDuration>
            </extension>
            <extension url="http://nictiz.nl/fhir/StructureDefinition/zib-Medication-MedicationTreatment">
               <valueIdentifier>
                  <system value="urn:oid:2.16.840.1.113883.2.4.3.11.999.77.1.1"/>
                  <value value="MBH_513_1"/>
               </valueIdentifier>
            </extension>
            <identifier>
               <system value="urn:oid:2.16.840.1.113883.2.4.3.11.999.77.16076005.1"/>
               <value value="MBH_513_1_MA_2"/>
            </identifier>
            <status value="entered-in-error"/>
            <intent value="order"/>
            <category>
               <coding>
                  <system value="http://snomed.info/sct"/>
                  <code value="16076005"/>
                  <display value="Prescription (procedure)"/>
               </coding>
               <text value="Medicatieafspraak"/>
            </category>
            <medicationCodeableConcept>
               <coding>
                  <system value="urn:oid:2.16.840.1.113883.2.4.4.10"/>
                  <code value="49484"/>
               </coding>
               <text value="Acetylsalicylzuur tabletmsr 100mg"/>
            </medicationCodeableConcept>
            <subject>
               <reference value="urn:uuid:D6528107-AFB6-11E8-1966-09173F13E4C5"/>
               <display value="J. XXX_Amaya"/>
            </subject>
            <authoredOn value="2018-08-16T09:00:00+02:00"/>
            <requester>
               <extension url="http://nictiz.nl/fhir/StructureDefinition/zib-MedicationAgreement-RequesterRole">
                  <valueReference>
                     <reference value="urn:uuid:D652812B-AFB6-11E8-1966-09173F13E4C5"/>
                     <display value="Bertine van Doorn || Huisartsen, niet nader gespecificeerd || Huisartsenpraktijk Pulver &amp; Partners"/>
                  </valueReference>
               </extension>
               <agent>
                  <reference value="urn:oid:2.16.528.1.1007.3.1.000001112"/>
                  <display value="Bertine van Doorn"/>
               </agent>
            </requester>
            <reasonCode>
               <coding>
                  <system value="http://snomed.info/sct"/>
                  <code value="266709005"/>
               </coding>
               <text value="Starten medicamenteuze behandeling"/>
            </reasonCode>
            <dosageInstruction>
               <sequence value="1"/>
               <text value="Vanaf T-1, gedurende 60 dagen, 1 maal per dag 1 stuk, oraal"/>
               <timing>
                  <repeat>
                     <frequency value="1"/>
                     <period value="1"/>
                     <periodUnit value="d"/>
                  </repeat>
               </timing>
               <route>
                  <coding>
                     <system value="urn:oid:2.16.840.1.113883.2.4.4.9"/>
                     <code value="9"/>
                  </coding>
                  <text value="Oraal"/>
               </route>
               <doseQuantity>
                  <value value="1"/>
                  <unit value="stuk"/>
                  <system value="urn:oid:2.16.840.1.113883.2.4.4.1.900.2"/>
                  <code value="245"/>
               </doseQuantity>
            </dosageInstruction>
         </MedicationRequest>
      </resource>
   </entry>
   <entry>
      <fullUrl value="urn:uuid:D652813A-AFB6-11E8-1966-09173F13E4C5"/>
      <resource>
         <MedicationRequest>
            <meta>
               <profile value="http://nictiz.nl/fhir/StructureDefinition/zib-MedicationAgreement"/>
            </meta>
            <extension url="http://nictiz.nl/fhir/StructureDefinition/zib-Medication-PeriodOfUse">
               <valuePeriod>
                  <start value="2018-08-16T00:00:00+02:00"/>
               </valuePeriod>
            </extension>
            <extension url="http://nictiz.nl/fhir/StructureDefinition/zib-Medication-MedicationTreatment">
               <valueIdentifier>
                  <system value="urn:oid:2.16.840.1.113883.2.4.3.11.999.77.1.1"/>
                  <value value="MBH_513_2"/>
               </valueIdentifier>
            </extension>
            <extension url="http://nictiz.nl/fhir/StructureDefinition/zib-MedicationAgreement-BasedOnAgreementOrUse">
               <valueReference>
                  <identifier>
                     <system value="urn:oid:2.16.840.1.113883.2.4.3.11.999.77.422037009.1"/>
                     <value value="MBH_513_2_TA_1"/>
                  </identifier>
                  <display value="relatie naar toedieningsafspraak: MBH_513_2_TA_1 || 2.16.840.1.113883.2.4.3.11.999.77.422037009.1"/>
               </valueReference>
            </extension>
            <identifier>
               <system value="urn:oid:2.16.840.1.113883.2.4.3.11.999.77.16076005.1"/>
               <value value="MBH_513_2_MA_2"/>
            </identifier>
            <intent value="order"/>
            <category>
               <coding>
                  <system value="http://snomed.info/sct"/>
                  <code value="16076005"/>
                  <display value="Prescription (procedure)"/>
               </coding>
               <text value="Medicatieafspraak"/>
            </category>
            <medicationCodeableConcept>
               <coding>
                  <system value="urn:oid:2.16.840.1.113883.2.4.4.10"/>
                  <code value="5967"/>
               </coding>
               <text value="Furosemide tablet 40mg"/>
            </medicationCodeableConcept>
            <subject>
               <reference value="urn:uuid:D6528107-AFB6-11E8-1966-09173F13E4C5"/>
               <display value="J. XXX_Amaya"/>
            </subject>
            <authoredOn value="2018-08-16T14:32:00+02:00"/>
            <requester>
               <extension url="http://nictiz.nl/fhir/StructureDefinition/zib-MedicationAgreement-RequesterRole">
                  <valueReference>
                     <reference value="urn:uuid:D652812D-AFB6-11E8-1966-09173F13E4C5"/>
                     <display value="Hans van Doorn || Medisch specialisten, inwendige geneeskunde || Ziekenhuis Stitswerd"/>
                  </valueReference>
               </extension>
               <agent>
                  <reference value="urn:oid:2.16.528.1.1007.3.1.999001112"/>
                  <display value="Hans van Doorn"/>
               </agent>
            </requester>
            <reasonCode>
               <coding>
                  <system value="http://snomed.info/sct"/>
                  <code value="305335007"/>
               </coding>
               <text value="Opname"/>
            </reasonCode>
            <note>
               <text value="Toedieningsafspraak van apotheker ontvangen, geen medicatieafspraak van voorschrijver ontvangen. Deze nieuwe medicatieafspraak is gebaseerd op de toedieningsafspraak: MBH_513_2_TA_1"/>
            </note>
            <dosageInstruction>
               <sequence value="1"/>
               <text value="Vanaf T, tot nader order, 1 maal daags 1 stuk, oraal"/>
               <timing>
                  <repeat>
                     <frequency value="1"/>
                     <period value="1"/>
                     <periodUnit value="d"/>
                  </repeat>
               </timing>
               <route>
                  <coding>
                     <system value="urn:oid:2.16.840.1.113883.2.4.4.9"/>
                     <code value="9"/>
                  </coding>
                  <text value="Oraal"/>
               </route>
               <doseQuantity>
                  <value value="1"/>
                  <unit value="stuk"/>
                  <system value="urn:oid:2.16.840.1.113883.2.4.4.1.900.2"/>
                  <code value="245"/>
               </doseQuantity>
            </dosageInstruction>
         </MedicationRequest>
      </resource>
   </entry>
   <entry>
      <fullUrl value="urn:uuid:D652813F-AFB6-11E8-1966-09173F13E4C5"/>
      <resource>
         <Condition>
            <clinicalStatus value="active"/>
            <code>
               <coding>
                  <system value="http://hl7.org/fhir/sid/icpc-1-nl"/>
                  <code value="B74"/>
               </coding>
               <text value="Andere maligniteit bloed/lymfestelsel"/>
            </code>
            <subject>
               <reference value="urn:uuid:D6528107-AFB6-11E8-1966-09173F13E4C5"/>
               <display value="J. XXX_Amaya"/>
            </subject>
         </Condition>
      </resource>
   </entry>
   <entry>
      <fullUrl value="urn:uuid:D6528141-AFB6-11E8-1966-09173F13E4C5"/>
      <resource>
         <MedicationRequest>
            <meta>
               <profile value="http://nictiz.nl/fhir/StructureDefinition/zib-MedicationAgreement"/>
            </meta>
            <extension url="http://nictiz.nl/fhir/StructureDefinition/zib-Medication-PeriodOfUse">
               <valuePeriod>
                  <start value="2018-08-16T00:00:00+02:00"/>
               </valuePeriod>
            </extension>
            <extension url="http://nictiz.nl/fhir/StructureDefinition/zib-MedicationUse-Duration">
               <valueDuration>
                  <value value="28"/>
                  <unit value="dag"/>
                  <system value="http://unitsofmeasure.org"/>
                  <code value="d"/>
               </valueDuration>
            </extension>
            <extension url="http://nictiz.nl/fhir/StructureDefinition/zib-Medication-MedicationTreatment">
               <valueIdentifier>
                  <system value="urn:oid:2.16.840.1.113883.2.4.3.11.999.77.1.1"/>
                  <value value="MBH_513_3"/>
               </valueIdentifier>
            </extension>
            <extension url="http://nictiz.nl/fhir/StructureDefinition/zib-MedicationAgreement-BasedOnAgreementOrUse">
               <valueReference>
                  <identifier>
                     <system value="urn:oid:2.16.840.1.113883.2.4.3.11.999.77.6.1"/>
                     <value value="MBH_513_3_MGB_1"/>
                  </identifier>
                  <display value="relatie naar medicatiegebruik: MBH_513_3_MGB_1 || 2.16.840.1.113883.2.4.3.11.999.77.6.1"/>
               </valueReference>
            </extension>
            <identifier>
               <system value="urn:oid:2.16.840.1.113883.2.4.3.11.999.77.16076005.1"/>
               <value value="MBH_513_3_MA_1"/>
            </identifier>
            <intent value="order"/>
            <category>
               <coding>
                  <system value="http://snomed.info/sct"/>
                  <code value="16076005"/>
                  <display value="Prescription (procedure)"/>
               </coding>
               <text value="Medicatieafspraak"/>
            </category>
            <medicationCodeableConcept>
               <coding>
                  <system value="urn:oid:2.16.840.1.113883.2.4.4.10"/>
                  <code value="6009"/>
               </coding>
               <text value="Methotrexaat tablet 2,5mg"/>
            </medicationCodeableConcept>
            <subject>
               <reference value="urn:uuid:D6528107-AFB6-11E8-1966-09173F13E4C5"/>
               <display value="J. XXX_Amaya"/>
            </subject>
            <authoredOn value="2018-08-16T14:32:00+02:00"/>
            <requester>
               <extension url="http://nictiz.nl/fhir/StructureDefinition/zib-MedicationAgreement-RequesterRole">
                  <valueReference>
                     <reference value="urn:uuid:D652812D-AFB6-11E8-1966-09173F13E4C5"/>
                     <display value="Hans van Doorn || Medisch specialisten, inwendige geneeskunde || Ziekenhuis Stitswerd"/>
                  </valueReference>
               </extension>
               <agent>
                  <reference value="urn:oid:2.16.528.1.1007.3.1.999001112"/>
                  <display value="Hans van Doorn"/>
               </agent>
            </requester>
            <reasonCode>
               <coding>
                  <system value="http://snomed.info/sct"/>
                  <code value="305335007"/>
               </coding>
               <text value="Opname"/>
            </reasonCode>
            <reasonReference>
               <reference value="urn:uuid:D652813F-AFB6-11E8-1966-09173F13E4C5"/>
               <display value="Andere maligniteit bloed/lymfestelsel"/>
            </reasonReference>
            <dosageInstruction>
               <sequence value="1"/>
               <text value="Vanaf T, tot nader order, 1 maal per week 5 stuks, oraal"/>
               <timing>
                  <repeat>
                     <frequency value="1"/>
                     <period value="1"/>
                     <periodUnit value="wk"/>
                  </repeat>
               </timing>
               <route>
                  <coding>
                     <system value="urn:oid:2.16.840.1.113883.2.4.4.9"/>
                     <code value="9"/>
                  </coding>
                  <text value="Oraal"/>
               </route>
               <doseQuantity>
                  <value value="5"/>
                  <unit value="stuk"/>
                  <system value="urn:oid:2.16.840.1.113883.2.4.4.1.900.2"/>
                  <code value="245"/>
               </doseQuantity>
            </dosageInstruction>
         </MedicationRequest>
      </resource>
   </entry>
   <entry>
      <fullUrl value="urn:uuid:D6528145-AFB6-11E8-1966-09173F13E4C5"/>
      <resource>
         <Observation>
            <meta>
               <profile value="http://nictiz.nl/fhir/StructureDefinition/zib-BodyHeight"/>
            </meta>
            <status value="final"/>
            <category>
               <coding>
                  <system value="http://hl7.org/fhir/observation-category"/>
                  <code value="vital-signs"/>
               </coding>
            </category>
            <code>
               <coding>
                  <system value="http://loinc.org"/>
                  <code value="8302-2"/>
                  <display value="lichaamslengte"/>
               </coding>
            </code>
            <subject>
               <reference value="urn:uuid:D6528107-AFB6-11E8-1966-09173F13E4C5"/>
               <display value="J. XXX_Amaya"/>
            </subject>
            <valueQuantity>
               <value value="155"/>
               <unit value="cm"/>
               <code value="cm"/>
            </valueQuantity>
         </Observation>
      </resource>
   </entry>
   <entry>
      <fullUrl value="urn:uuid:D6528147-AFB6-11E8-1966-09173F13E4C5"/>
      <resource>
         <Observation>
            <meta>
               <profile value="http://nictiz.nl/fhir/StructureDefinition/zib-BodyWeight"/>
            </meta>
            <status value="final"/>
            <category>
               <coding>
                  <system value="http://hl7.org/fhir/observation-category"/>
                  <code value="vital-signs"/>
               </coding>
            </category>
            <code>
               <coding>
                  <system value="http://loinc.org"/>
                  <code value="29463-7"/>
                  <display value="lichaamsgewicht"/>
               </coding>
            </code>
            <subject>
               <reference value="urn:uuid:D6528107-AFB6-11E8-1966-09173F13E4C5"/>
               <display value="J. XXX_Amaya"/>
            </subject>
            <valueQuantity>
               <value value="54"/>
               <unit value="kg"/>
               <code value="kg"/>
            </valueQuantity>
         </Observation>
      </resource>
   </entry>
   <entry>
      <fullUrl value="urn:uuid:D6528149-AFB6-11E8-1966-09173F13E4C5"/>
      <resource>
         <MedicationRequest>
            <meta>
               <profile value="http://nictiz.nl/fhir/StructureDefinition/zib-MedicationAgreement"/>
            </meta>
            <extension url="http://nictiz.nl/fhir/StructureDefinition/zib-Medication-PeriodOfUse">
               <valuePeriod>
                  <start value="2018-08-11T00:00:00+02:00"/>
               </valuePeriod>
            </extension>
            <extension url="http://nictiz.nl/fhir/StructureDefinition/zib-MedicationUse-Duration">
               <valueDuration>
                  <value value="10"/>
                  <unit value="dag"/>
                  <system value="http://unitsofmeasure.org"/>
                  <code value="d"/>
               </valueDuration>
            </extension>
            <extension url="http://nictiz.nl/fhir/StructureDefinition/zib-Medication-AdditionalInformation">
               <valueCodeableConcept>
                  <coding>
                     <system value="urn:oid:2.16.840.1.113883.2.4.3.11.60.20.77.5.2.14.2050"/>
                     <code value="1"/>
                  </coding>
                  <text value="Bewust hoge dosering"/>
               </valueCodeableConcept>
            </extension>
            <extension url="http://nictiz.nl/fhir/StructureDefinition/zib-Medication-MedicationTreatment">
               <valueIdentifier>
                  <system value="urn:oid:2.16.840.1.113883.2.4.3.11.999.77.1.1"/>
                  <value value="MBH_513_4"/>
               </valueIdentifier>
            </extension>
            <identifier>
               <system value="urn:oid:2.16.840.1.113883.2.4.3.11.999.77.16076005.1"/>
               <value value="MBH_513_4_MA_1"/>
            </identifier>
            <intent value="order"/>
            <category>
               <coding>
                  <system value="http://snomed.info/sct"/>
                  <code value="16076005"/>
                  <display value="Prescription (procedure)"/>
               </coding>
               <text value="Medicatieafspraak"/>
            </category>
            <medicationCodeableConcept>
               <coding>
                  <system value="urn:oid:2.16.840.1.113883.2.4.4.10"/>
                  <code value="17205"/>
               </coding>
               <text value="FENETICILLINE CAPSULE 500MG"/>
            </medicationCodeableConcept>
            <subject>
               <reference value="urn:uuid:D6528107-AFB6-11E8-1966-09173F13E4C5"/>
               <display value="J. XXX_Amaya"/>
            </subject>
            <supportingInformation>
               <reference value="urn:uuid:D6528145-AFB6-11E8-1966-09173F13E4C5"/>
               <display value="Lengte: 155 cm. Datum/tijd gemeten: "/>
            </supportingInformation>
            <supportingInformation>
               <reference value="urn:uuid:D6528147-AFB6-11E8-1966-09173F13E4C5"/>
               <display value="Gewicht: 54 kg. Datum/tijd gemeten: "/>
            </supportingInformation>
            <authoredOn value="2018-08-11T09:35:00+02:00"/>
            <requester>
               <extension url="http://nictiz.nl/fhir/StructureDefinition/zib-MedicationAgreement-RequesterRole">
                  <valueReference>
                     <reference value="urn:uuid:D6528129-AFB6-11E8-1966-09173F13E4C5"/>
                     <display value="Peter van Pulver || Huisartsen, niet nader gespecificeerd || Huisartsenpraktijk Pulver &amp; Partners"/>
                  </valueReference>
               </extension>
               <agent>
                  <reference value="urn:oid:2.16.528.1.1007.3.1.000001111"/>
                  <display value="Peter van Pulver"/>
               </agent>
            </requester>
            <reasonCode>
               <coding>
                  <system value="http://snomed.info/sct"/>
                  <code value="266709005"/>
               </coding>
               <text value="Starten medicamenteuze behandeling"/>
            </reasonCode>
            <note>
               <text value="In overleg met specialist"/>
            </note>
            <dosageInstruction>
               <sequence value="1"/>
               <text value="Vanaf T-5, gedurende 10 dagen, 3 maal per dag 1 stuk, oraal"/>
               <timing>
                  <repeat>
                     <frequency value="3"/>
                     <period value="1"/>
                     <periodUnit value="d"/>
                  </repeat>
               </timing>
               <route>
                  <coding>
                     <system value="urn:oid:2.16.840.1.113883.2.4.4.9"/>
                     <code value="9"/>
                  </coding>
                  <text value="Oraal"/>
               </route>
               <doseQuantity>
                  <value value="1"/>
                  <unit value="stuk"/>
                  <system value="urn:oid:2.16.840.1.113883.2.4.4.1.900.2"/>
                  <code value="245"/>
               </doseQuantity>
            </dosageInstruction>
         </MedicationRequest>
      </resource>
   </entry>
   <entry>
      <fullUrl value="urn:uuid:D652814C-AFB6-11E8-1966-09173F13E4C5"/>
      <resource>
         <MedicationRequest>
            <meta>
               <profile value="http://nictiz.nl/fhir/StructureDefinition/zib-MedicationAgreement"/>
            </meta>
            <extension url="http://nictiz.nl/fhir/StructureDefinition/zib-Medication-PeriodOfUse">
               <valuePeriod>
                  <start value="2018-08-16T00:00:00+02:00"/>
               </valuePeriod>
            </extension>
            <extension url="http://nictiz.nl/fhir/StructureDefinition/zib-MedicationUse-Duration">
               <valueDuration>
                  <value value="60"/>
                  <unit value="dag"/>
                  <system value="http://unitsofmeasure.org"/>
                  <code value="d"/>
               </valueDuration>
            </extension>
            <extension url="http://nictiz.nl/fhir/StructureDefinition/zib-Medication-MedicationTreatment">
               <valueIdentifier>
                  <system value="urn:oid:2.16.840.1.113883.2.4.3.11.999.77.1.1"/>
                  <value value="MBH_513_4"/>
               </valueIdentifier>
            </extension>
            <identifier>
               <system value="urn:oid:2.16.840.1.113883.2.4.3.11.999.77.16076005.1"/>
               <value value="MBH_513_1_MA_2"/>
            </identifier>
            <status value="entered-in-error"/>
            <intent value="order"/>
            <category>
               <coding>
                  <system value="http://snomed.info/sct"/>
                  <code value="16076005"/>
                  <display value="Prescription (procedure)"/>
               </coding>
               <text value="Medicatieafspraak"/>
            </category>
            <medicationCodeableConcept>
               <coding>
                  <system value="urn:oid:2.16.840.1.113883.2.4.4.10"/>
                  <code value="49484"/>
               </coding>
               <text value="Acetylsalicylzuur tabletmsr 100mg"/>
            </medicationCodeableConcept>
            <subject>
               <reference value="urn:uuid:D6528107-AFB6-11E8-1966-09173F13E4C5"/>
               <display value="J. XXX_Amaya"/>
            </subject>
            <authoredOn value="2018-08-16T09:00:00+02:00"/>
            <requester>
               <extension url="http://nictiz.nl/fhir/StructureDefinition/zib-MedicationAgreement-RequesterRole">
                  <valueReference>
                     <reference value="urn:uuid:D652812B-AFB6-11E8-1966-09173F13E4C5"/>
                     <display value="Bertine van Doorn || Huisartsen, niet nader gespecificeerd || Huisartsenpraktijk Pulver &amp; Partners"/>
                  </valueReference>
               </extension>
               <agent>
                  <reference value="urn:oid:2.16.528.1.1007.3.1.000001112"/>
                  <display value="Bertine van Doorn"/>
               </agent>
            </requester>
            <reasonCode>
               <coding>
                  <system value="http://snomed.info/sct"/>
                  <code value="266709005"/>
               </coding>
               <text value="Starten medicamenteuze behandeling"/>
            </reasonCode>
            <dosageInstruction>
               <sequence value="1"/>
               <text value="Vanaf T-1, gedurende 60 dagen, 1 maal per dag 1 stuk, oraal"/>
               <timing>
                  <repeat>
                     <frequency value="1"/>
                     <period value="1"/>
                     <periodUnit value="d"/>
                  </repeat>
               </timing>
               <route>
                  <coding>
                     <system value="urn:oid:2.16.840.1.113883.2.4.4.9"/>
                     <code value="9"/>
                  </coding>
                  <text value="Oraal"/>
               </route>
               <doseQuantity>
                  <value value="1"/>
                  <unit value="stuk"/>
                  <system value="urn:oid:2.16.840.1.113883.2.4.4.1.900.2"/>
                  <code value="245"/>
               </doseQuantity>
            </dosageInstruction>
         </MedicationRequest>
      </resource>
   </entry>
</Bundle>
