<?xml version="1.0" encoding="UTF-8"?>
<?xml-model href="http://hl7.org/fhir/STU3/bundle.sch" type="application/xml" schematypens="http://purl.oclc.org/dsdl/schematron"?>
<Bundle xmlns="http://hl7.org/fhir" xmlns:xsi="http://www.w3.org/2001/XMLSchema-instance" xsi:schemaLocation="http://hl7.org/fhir http://hl7.org/fhir/STU3/bundle.xsd">
	<type value="searchset"/>
	<total value="21"/>
	<entry>
		<fullUrl value="urn:uuid:B1963C77-A79C-11E8-1753-09173F13E4C5"/>
		<resource>
			<Patient>
				<meta>
					<profile value="http://fhir.nl/fhir/StructureDefinition/nl-core-patient"/>
				</meta>
				<identifier>
					<system value="http://fhir.nl/fhir/NamingSystem/bsn"/>
					<value value="999911338"/>
				</identifier>
				<identifier>
					<system value="urn:oid:2.16.840.1.113883.2.4.3.11.999.77.19829.1"/>
					<value value="41106"/>
				</identifier>
				<name>
					<extension url="http://hl7.org/fhir/StructureDefinition/humanname-assembly-order">
						<valueCode value="NL1"/>
					</extension>
					<family value="XXX_Strengersz">
						<extension url="http://hl7.org/fhir/StructureDefinition/humanname-own-name">
							<valueString value="XXX_Strengersz"/>
						</extension>
					</family>
					<given value="R.">
						<extension url="http://hl7.org/fhir/StructureDefinition/iso21090-EN-qualifier">
							<valueCode value="IN"/>
						</extension>
					</given>
				</name>
				<gender value="female"/>
				<birthDate value="1964-08-01"/>
			</Patient>
		</resource>
	</entry>
	<entry>
		<fullUrl value="urn:oid:2.16.528.1.1007.3.1.000001111"/>
		<resource>
			<Practitioner>
				<meta>
					<profile value="http://fhir.nl/fhir/StructureDefinition/nl-core-practitioner"/>
				</meta>
				<identifier>
					<system value="http://fhir.nl/fhir/NamingSystem/uzi-nr-pers"/>
					<value value="000001111"/>
				</identifier>
				<name>
					<family value="van Pulver">
						<extension url="http://hl7.org/fhir/StructureDefinition/humanname-own-prefix">
							<valueString value="van"/>
						</extension>
						<extension url="http://hl7.org/fhir/StructureDefinition/humanname-own-name">
							<valueString value="Pulver"/>
						</extension>
					</family>
					<given value="Peter">
						<extension url="http://hl7.org/fhir/StructureDefinition/iso21090-EN-qualifier">
							<valueCode value="BR"/>
						</extension>
					</given>
				</name>
			</Practitioner>
		</resource>
	</entry>
	<entry>
		<fullUrl value="urn:oid:2.16.528.1.1007.3.3.00001111"/>
		<resource>
			<Organization>
				<meta>
					<profile value="http://fhir.nl/fhir/StructureDefinition/nl-core-organization"/>
				</meta>
				<identifier>
					<system value="http://fhir.nl/fhir/NamingSystem/ura"/>
					<value value="00001111"/>
				</identifier>
				<name value="Huisartsenpraktijk Pulver &amp; Partners"/>
			</Organization>
		</resource>
	</entry>
	<entry>
		<fullUrl value="urn:uuid:B1963C96-A79C-11E8-1753-09173F13E4C5"/>
		<resource>
			<PractitionerRole>
				<meta>
					<profile value="http://fhir.nl/fhir/StructureDefinition/nl-core-practitionerrole"/>
				</meta>
				<practitioner>
					<reference value="urn:oid:2.16.528.1.1007.3.1.000001111"/>
					<display value="Peter van Pulver"/>
				</practitioner>
				<organization>
					<reference value="urn:oid:2.16.528.1.1007.3.3.00001111"/>
					<display value="Huisartsenpraktijk Pulver &amp; Partners"/>
				</organization>
				<specialty>
					<coding>
						<system value="urn:oid:2.16.840.1.113883.2.4.6.7"/>
						<code value="0100"/>
					</coding>
					<text value="Huisartsen, niet nader gespecificeerd"/>
				</specialty>
			</PractitionerRole>
		</resource>
	</entry>
	<entry>
		<fullUrl value="urn:uuid:B1963C98-A79C-11E8-1753-09173F13E4C5"/>
		<resource>
			<Medication>
				<meta>
					<profile value="http://nictiz.nl/fhir/StructureDefinition/zib-Product"/>
				</meta>
				<extension url="http://nictiz.nl/fhir/StructureDefinition/zib-Product-Description">
					<valueString value="Titel: Haparine 100 ie= 10 ml           Regel: Minpl cla water c ing 10ml           Regel: Heparini natricum Regel: natrri chloridum"/>
				</extension>
				<code>
					<text value="Haparine 100 ie= 10 ml"/>
				</code>
				<form>
					<coding>
						<system value="urn:oid:2.16.840.1.113883.2.4.4.11"/>
						<code value="434"/>
					</coding>
					<text value="vloeistof"/>
				</form>
				<ingredient>
					<itemCodeableConcept>
						<coding>
							<system value="urn:oid:2.16.840.1.113883.2.4.4.7"/>
							<code value="898724"/>
						</coding>
						<text value="Heparinum natricum"/>
					</itemCodeableConcept>
					<isActive value="true"/>
					<amount>
						<numerator>
							<value value="100"/>
							<unit value="internationale eenheid"/>
							<system value="urn:oid:2.16.840.1.113883.2.4.4.1.900.2"/>
							<code value="217"/>
						</numerator>
						<denominator>
							<value value="10"/>
							<unit value="milliliter"/>
							<system value="urn:oid:2.16.840.1.113883.2.4.4.1.900.2"/>
							<code value="233"/>
						</denominator>
					</amount>
				</ingredient>
				<ingredient>
					<itemCodeableConcept>
						<coding>
							<system value="urn:oid:2.16.840.1.113883.2.4.4.7"/>
							<code value="2257610"/>
						</coding>
						<text value="WATER VOOR INJECTIE CF FLACON 10ML"/>
					</itemCodeableConcept>
					<isActive value="true"/>
					<amount>
						<numerator>
							<value value="1"/>
							<unit value="stuk"/>
							<system value="urn:oid:2.16.840.1.113883.2.4.4.1.900.2"/>
							<code value="245"/>
						</numerator>
						<denominator>
							<value value="10"/>
							<unit value="milliliter"/>
							<system value="urn:oid:2.16.840.1.113883.2.4.4.1.900.2"/>
							<code value="233"/>
						</denominator>
					</amount>
				</ingredient>
				<ingredient>
					<itemCodeableConcept>
						<coding>
							<system value="urn:oid:2.16.840.1.113883.2.4.4.7"/>
							<code value="256390"/>
						</coding>
						<text value="NATRII CHLORIDUM"/>
					</itemCodeableConcept>
					<isActive value="true"/>
					<amount>
						<numerator>
							<value value="0.09"/>
							<unit value="gram"/>
							<system value="urn:oid:2.16.840.1.113883.2.4.4.1.900.2"/>
							<code value="215"/>
						</numerator>
						<denominator>
							<value value="10"/>
							<unit value="milliliter"/>
							<system value="urn:oid:2.16.840.1.113883.2.4.4.1.900.2"/>
							<code value="233"/>
						</denominator>
					</amount>
				</ingredient>
			</Medication>
		</resource>
	</entry>
	<entry>
		<fullUrl value="urn:uuid:B1963C9B-A79C-11E8-1753-09173F13E4C5"/>
		<resource>
			<MedicationRequest>
				<meta>
					<profile value="http://nictiz.nl/fhir/StructureDefinition/zib-MedicationAgreement"/>
				</meta>
				<extension url="http://nictiz.nl/fhir/StructureDefinition/zib-Medication-PeriodOfUse">
					<valuePeriod>
						<start value="2018-08-16T00:00:00+02:00"/>
					</valuePeriod>
				</extension>
				<extension url="http://nictiz.nl/fhir/StructureDefinition/zib-MedicationUse-Duration">
					<valueDuration>
						<value value="60"/>
						<unit value="dag"/>
						<system value="http://unitsofmeasure.org"/>
						<code value="d"/>
					</valueDuration>
				</extension>
				<extension url="http://nictiz.nl/fhir/StructureDefinition/zib-Medication-MedicationTreatment">
					<valueIdentifier>
						<system value="urn:oid:2.16.840.1.113883.2.4.3.11.999.77.1.1"/>
						<value value="MBH_413_1"/>
					</valueIdentifier>
				</extension>
				<identifier>
					<system value="urn:oid:2.16.840.1.113883.2.4.3.11.999.77.16076005.1"/>
					<value value="MBH_413_1_MA_1"/>
				</identifier>
				<intent value="order"/>
				<category>
					<coding>
						<system value="http://snomed.info/sct"/>
						<code value="16076005"/>
						<display value="Prescription (procedure)"/>
					</coding>
				</category>
				<medicationCodeableConcept>
					<coding>
						<system value="urn:oid:2.16.840.1.113883.2.4.4.1"/>
						<code value="49484"/>
					</coding>
					<text value="Acetylsalicylzuur tabletmsr 100mg"/>
				</medicationCodeableConcept>
				<subject>
					<reference value="urn:uuid:B1963C77-A79C-11E8-1753-09173F13E4C5"/>
					<display value="R. XXX_Strengersz"/>
				</subject>
				<authoredOn value="2018-08-16T11:25:00+02:00"/>
				<requester>
					<extension url="http://nictiz.nl/fhir/StructureDefinition/zib-MedicationAgreement-RequesterRole">
						<valueReference>
							<reference value="urn:uuid:B1963C96-A79C-11E8-1753-09173F13E4C5"/>
							<display value="Peter van Pulver || Huisartsen, niet nader gespecificeerd || Huisartsenpraktijk Pulver &amp; Partners"/>
						</valueReference>
					</extension>
					<agent>
						<reference value="urn:oid:2.16.528.1.1007.3.1.000001111"/>
						<display value="Peter van Pulver"/>
					</agent>
				</requester>
				<reasonCode>
					<coding>
						<system value="http://snomed.info/sct"/>
						<code value="266709005"/>
					</coding>
					<text value="Starten medicamenteuze behandeling"/>
				</reasonCode>
				<dosageInstruction>
					<sequence value="1"/>
					<text value="Vanaf T, gedurende 60 dagen, 1 à 2 maal per dag 1 stuk, oraal"/>
					<timing>
						<repeat>
							<frequency value="1"/>
							<frequencyMax value="2"/>
							<period value="1"/>
							<periodUnit value="d"/>
						</repeat>
					</timing>
					<route>
						<coding>
							<system value="urn:oid:2.16.840.1.113883.2.4.4.9"/>
							<code value="9"/>
						</coding>
						<text value="Oraal"/>
					</route>
					<doseQuantity>
						<value value="1"/>
						<unit value="stuk"/>
						<system value="urn:oid:2.16.840.1.113883.2.4.4.1.900.2"/>
						<code value="245"/>
					</doseQuantity>
				</dosageInstruction>
			</MedicationRequest>
		</resource>
	</entry>
	<entry>
		<fullUrl value="urn:uuid:B1963CA0-A79C-11E8-1753-09173F13E4C5"/>
		<resource>
			<MedicationRequest>
				<meta>
					<profile value="http://nictiz.nl/fhir/StructureDefinition/zib-MedicationAgreement"/>
				</meta>
				<extension url="http://nictiz.nl/fhir/StructureDefinition/zib-Medication-PeriodOfUse">
					<valuePeriod>
						<start value="2018-08-16T00:00:00+02:00"/>
					</valuePeriod>
				</extension>
				<extension url="http://nictiz.nl/fhir/StructureDefinition/zib-MedicationUse-Duration">
					<valueDuration>
						<value value="60"/>
						<unit value="dag"/>
						<system value="http://unitsofmeasure.org"/>
						<code value="d"/>
					</valueDuration>
				</extension>
				<extension url="http://nictiz.nl/fhir/StructureDefinition/zib-Medication-MedicationTreatment">
					<valueIdentifier>
						<system value="urn:oid:2.16.840.1.113883.2.4.3.11.999.77.1.1"/>
						<value value="MBH_413_2"/>
					</valueIdentifier>
				</extension>
				<identifier>
					<system value="urn:oid:2.16.840.1.113883.2.4.3.11.999.77.16076005.1"/>
					<value value="MBH_413_2_MA_1"/>
				</identifier>
				<intent value="order"/>
				<category>
					<coding>
						<system value="http://snomed.info/sct"/>
						<code value="16076005"/>
						<display value="Prescription (procedure)"/>
					</coding>
				</category>
				<medicationCodeableConcept>
					<coding>
						<system value="urn:oid:2.16.840.1.113883.2.4.4.1"/>
						<code value="34851"/>
					</coding>
					<text value="Insuline isofaan injsusp 100ie/ml patr 3ml"/>
				</medicationCodeableConcept>
				<subject>
					<reference value="urn:uuid:B1963C77-A79C-11E8-1753-09173F13E4C5"/>
					<display value="R. XXX_Strengersz"/>
				</subject>
				<authoredOn value="2018-08-16T11:25:00+02:00"/>
				<requester>
					<extension url="http://nictiz.nl/fhir/StructureDefinition/zib-MedicationAgreement-RequesterRole">
						<valueReference>
							<reference value="urn:uuid:B1963C96-A79C-11E8-1753-09173F13E4C5"/>
							<display value="Peter van Pulver || Huisartsen, niet nader gespecificeerd || Huisartsenpraktijk Pulver &amp; Partners"/>
						</valueReference>
					</extension>
					<agent>
						<reference value="urn:oid:2.16.528.1.1007.3.1.000001111"/>
						<display value="Peter van Pulver"/>
					</agent>
				</requester>
				<reasonCode>
					<coding>
						<system value="http://snomed.info/sct"/>
						<code value="266709005"/>
					</coding>
					<text value="Starten medicamenteuze behandeling"/>
				</reasonCode>
				<dosageInstruction>
					<sequence value="1"/>
					<text value="Vanaf T, gedurende 60 dagen, exact iedere 3 uur 16 IE, subcutaan"/>
					<timing>
						<repeat>
							<period value="3"/>
							<periodUnit value="h"/>
						</repeat>
					</timing>
					<route>
						<coding>
							<system value="urn:oid:2.16.840.1.113883.2.4.4.9"/>
							<code value="21"/>
						</coding>
						<text value="subcutaan"/>
					</route>
					<doseQuantity>
						<value value="16"/>
						<unit value="internationale eenheid"/>
						<system value="urn:oid:2.16.840.1.113883.2.4.4.1.900.2"/>
						<code value="217"/>
					</doseQuantity>
				</dosageInstruction>
			</MedicationRequest>
		</resource>
	</entry>
	<entry>
		<fullUrl value="urn:uuid:B1963CA5-A79C-11E8-1753-09173F13E4C5"/>
		<resource>
			<MedicationRequest>
				<meta>
					<profile value="http://nictiz.nl/fhir/StructureDefinition/zib-MedicationAgreement"/>
				</meta>
				<extension url="http://nictiz.nl/fhir/StructureDefinition/zib-Medication-PeriodOfUse">
					<valuePeriod>
						<start value="2018-06-27T00:00:00+02:00"/>
					</valuePeriod>
				</extension>
				<extension url="http://nictiz.nl/fhir/StructureDefinition/zib-MedicationUse-Duration">
					<valueDuration>
						<value value="7"/>
						<unit value="week"/>
						<system value="http://unitsofmeasure.org"/>
						<code value="wk"/>
					</valueDuration>
				</extension>
				<extension url="http://nictiz.nl/fhir/StructureDefinition/zib-Medication-MedicationTreatment">
					<valueIdentifier>
						<system value="urn:oid:2.16.840.1.113883.2.4.3.11.999.77.1.1"/>
						<value value="MBH_413_3"/>
					</valueIdentifier>
				</extension>
				<identifier>
					<system value="urn:oid:2.16.840.1.113883.2.4.3.11.999.77.16076005.1"/>
					<value value="MBH_413_3_MA_1"/>
				</identifier>
				<intent value="order"/>
				<category>
					<coding>
						<system value="http://snomed.info/sct"/>
						<code value="16076005"/>
						<display value="Prescription (procedure)"/>
					</coding>
				</category>
				<medicationCodeableConcept>
					<coding>
						<system value="urn:oid:2.16.840.1.113883.2.4.4.1"/>
						<code value="49484"/>
					</coding>
					<text value="Acetylsalicylzuur tabletmsr 100mg"/>
				</medicationCodeableConcept>
				<subject>
					<reference value="urn:uuid:B1963C77-A79C-11E8-1753-09173F13E4C5"/>
					<display value="R. XXX_Strengersz"/>
				</subject>
				<authoredOn value="2018-06-27T11:25:00+02:00"/>
				<requester>
					<extension url="http://nictiz.nl/fhir/StructureDefinition/zib-MedicationAgreement-RequesterRole">
						<valueReference>
							<reference value="urn:uuid:B1963C96-A79C-11E8-1753-09173F13E4C5"/>
							<display value="Peter van Pulver || Huisartsen, niet nader gespecificeerd || Huisartsenpraktijk Pulver &amp; Partners"/>
						</valueReference>
					</extension>
					<agent>
						<reference value="urn:oid:2.16.528.1.1007.3.1.000001111"/>
						<display value="Peter van Pulver"/>
					</agent>
				</requester>
				<reasonCode>
					<coding>
						<system value="http://snomed.info/sct"/>
						<code value="266709005"/>
					</coding>
					<text value="Starten medicamenteuze behandeling"/>
				</reasonCode>
				<dosageInstruction>
					<sequence value="1"/>
					<text value="Vanaf T-50, gedurende 7 weken, 3 maal per dag 1 à 2 stuks, oraal"/>
					<timing>
						<repeat>
							<frequency value="3"/>
							<period value="1"/>
							<periodUnit value="d"/>
						</repeat>
					</timing>
					<route>
						<coding>
							<system value="urn:oid:2.16.840.1.113883.2.4.4.9"/>
							<code value="9"/>
						</coding>
						<text value="oraal"/>
					</route>
					<doseRange>
						<low>
							<value value="1"/>
							<unit value="stuk"/>
							<system value="urn:oid:2.16.840.1.113883.2.4.4.1.900.2"/>
							<code value="245"/>
						</low>
						<high>
							<value value="2"/>
							<unit value="stuk"/>
							<system value="urn:oid:2.16.840.1.113883.2.4.4.1.900.2"/>
							<code value="245"/>
						</high>
					</doseRange>
				</dosageInstruction>
			</MedicationRequest>
		</resource>
	</entry>
	<entry>
		<fullUrl value="urn:uuid:B1963CAA-A79C-11E8-1753-09173F13E4C5"/>
		<resource>
			<MedicationRequest>
				<meta>
					<profile value="http://nictiz.nl/fhir/StructureDefinition/zib-MedicationAgreement"/>
				</meta>
				<extension url="http://nictiz.nl/fhir/StructureDefinition/zib-Medication-PeriodOfUse">
					<valuePeriod>
						<start value="2018-07-27T00:00:00+02:00"/>
					</valuePeriod>
				</extension>
				<extension url="http://nictiz.nl/fhir/StructureDefinition/zib-MedicationUse-Duration">
					<valueDuration>
						<value value="30"/>
						<unit value="dag"/>
						<system value="http://unitsofmeasure.org"/>
						<code value="d"/>
					</valueDuration>
				</extension>
				<extension url="http://nictiz.nl/fhir/StructureDefinition/zib-Medication-MedicationTreatment">
					<valueIdentifier>
						<system value="urn:oid:2.16.840.1.113883.2.4.3.11.999.77.1.1"/>
						<value value="MBH_413_4"/>
					</valueIdentifier>
				</extension>
				<identifier>
					<system value="urn:oid:2.16.840.1.113883.2.4.3.11.999.77.16076005.1"/>
					<value value="MBH_413_4_MA_1"/>
				</identifier>
				<intent value="order"/>
				<category>
					<coding>
						<system value="http://snomed.info/sct"/>
						<code value="16076005"/>
						<display value="Prescription (procedure)"/>
					</coding>
				</category>
				<medicationCodeableConcept>
					<coding>
						<system value="urn:oid:2.16.840.1.113883.2.4.4.1"/>
						<code value="92789"/>
					</coding>
					<text value="Cetomacrogolcreme met vaseline 10%"/>
				</medicationCodeableConcept>
				<subject>
					<reference value="urn:uuid:B1963C77-A79C-11E8-1753-09173F13E4C5"/>
					<display value="R. XXX_Strengersz"/>
				</subject>
				<authoredOn value="2018-07-27T10:26:00+02:00"/>
				<requester>
					<extension url="http://nictiz.nl/fhir/StructureDefinition/zib-MedicationAgreement-RequesterRole">
						<valueReference>
							<reference value="urn:uuid:B1963C96-A79C-11E8-1753-09173F13E4C5"/>
							<display value="Peter van Pulver || Huisartsen, niet nader gespecificeerd || Huisartsenpraktijk Pulver &amp; Partners"/>
						</valueReference>
					</extension>
					<agent>
						<reference value="urn:oid:2.16.528.1.1007.3.1.000001111"/>
						<display value="Peter van Pulver"/>
					</agent>
				</requester>
				<reasonCode>
					<coding>
						<system value="http://snomed.info/sct"/>
						<code value="266709005"/>
					</coding>
					<text value="Starten medicamenteuze behandeling"/>
				</reasonCode>
				<dosageInstruction>
					<sequence value="1"/>
					<text value="Vanaf T-20, gedurende 30 dagen, 3 maal per dag aanbrengen, cutaan"/>
					<additionalInstruction>
						<coding>
							<system value="https://referentiemodel.nhg.org/tabellen/nhg-tabel-25-gebruiksvoorschrift#aanvullend-numeriek"/>
							<code value="1018"/>
						</coding>
						<text value="aanbrengen"/>
					</additionalInstruction>
					<timing>
						<repeat>
							<frequency value="3"/>
							<period value="1"/>
							<periodUnit value="d"/>
						</repeat>
					</timing>
					<route>
						<coding>
							<system value="urn:oid:2.16.840.1.113883.2.4.4.9"/>
							<code value="7"/>
						</coding>
						<text value="cutaan"/>
					</route>
				</dosageInstruction>
			</MedicationRequest>
		</resource>
	</entry>
	<entry>
		<fullUrl value="urn:uuid:B1963CAF-A79C-11E8-1753-09173F13E4C5"/>
		<resource>
			<MedicationRequest>
				<meta>
					<profile value="http://nictiz.nl/fhir/StructureDefinition/zib-MedicationAgreement"/>
				</meta>
				<extension url="http://nictiz.nl/fhir/StructureDefinition/zib-Medication-PeriodOfUse">
					<valuePeriod>
						<start value="2018-07-27T00:00:00+02:00"/>
					</valuePeriod>
				</extension>
				<extension url="http://nictiz.nl/fhir/StructureDefinition/zib-MedicationUse-Duration">
					<valueDuration>
						<value value="30"/>
						<unit value="dag"/>
						<system value="http://unitsofmeasure.org"/>
						<code value="d"/>
					</valueDuration>
				</extension>
				<extension url="http://nictiz.nl/fhir/StructureDefinition/zib-Medication-MedicationTreatment">
					<valueIdentifier>
						<system value="urn:oid:2.16.840.1.113883.2.4.3.11.999.77.1.1"/>
						<value value="MBH_413_5"/>
					</valueIdentifier>
				</extension>
				<identifier>
					<system value="urn:oid:2.16.840.1.113883.2.4.3.11.999.77.16076005.1"/>
					<value value="MBH_413_5_MA_1"/>
				</identifier>
				<intent value="order"/>
				<category>
					<coding>
						<system value="http://snomed.info/sct"/>
						<code value="16076005"/>
						<display value="Prescription (procedure)"/>
					</coding>
				</category>
				<medicationCodeableConcept>
					<coding>
						<system value="urn:oid:2.16.840.1.113883.2.4.4.7"/>
						<code value="641898"/>
					</coding>
					<text value="Ibuprofen PCH tablet 600mg"/>
				</medicationCodeableConcept>
				<subject>
					<reference value="urn:uuid:B1963C77-A79C-11E8-1753-09173F13E4C5"/>
					<display value="R. XXX_Strengersz"/>
				</subject>
				<authoredOn value="2018-07-27T10:46:00+02:00"/>
				<requester>
					<extension url="http://nictiz.nl/fhir/StructureDefinition/zib-MedicationAgreement-RequesterRole">
						<valueReference>
							<reference value="urn:uuid:B1963C96-A79C-11E8-1753-09173F13E4C5"/>
							<display value="Peter van Pulver || Huisartsen, niet nader gespecificeerd || Huisartsenpraktijk Pulver &amp; Partners"/>
						</valueReference>
					</extension>
					<agent>
						<reference value="urn:oid:2.16.528.1.1007.3.1.000001111"/>
						<display value="Peter van Pulver"/>
					</agent>
				</requester>
				<reasonCode>
					<coding>
						<system value="http://snomed.info/sct"/>
						<code value="266709005"/>
					</coding>
					<text value="Starten medicamenteuze behandeling"/>
				</reasonCode>
				<dosageInstruction>
					<sequence value="1"/>
					<text value="Vanaf T-20, gedurende 30 dagen, 3 maal per dag aanbrengen, cutaan"/>
					<timing>
						<repeat>
							<frequency value="2"/>
							<period value="1"/>
							<periodUnit value="d"/>
						</repeat>
					</timing>
					<route>
						<coding>
							<system value="urn:oid:2.16.840.1.113883.2.4.4.9"/>
							<code value="9"/>
						</coding>
						<text value="oraal"/>
					</route>
					<doseQuantity>
						<value value="0.25"/>
						<unit value="stuk"/>
						<system value="urn:oid:2.16.840.1.113883.2.4.4.1.900.2"/>
						<code value="245"/>
					</doseQuantity>
				</dosageInstruction>
			</MedicationRequest>
		</resource>
	</entry>
	<entry>
		<fullUrl value="urn:uuid:B1963CB4-A79C-11E8-1753-09173F13E4C5"/>
		<resource>
			<MedicationRequest>
				<meta>
					<profile value="http://nictiz.nl/fhir/StructureDefinition/zib-MedicationAgreement"/>
				</meta>
				<extension url="http://nictiz.nl/fhir/StructureDefinition/zib-Medication-PeriodOfUse">
					<valuePeriod>
						<start value="2018-08-16T00:00:00+02:00"/>
					</valuePeriod>
				</extension>
				<extension url="http://nictiz.nl/fhir/StructureDefinition/zib-MedicationUse-Duration">
					<valueDuration>
						<value value="14"/>
						<unit value="dag"/>
						<system value="http://unitsofmeasure.org"/>
						<code value="d"/>
					</valueDuration>
				</extension>
				<extension url="http://nictiz.nl/fhir/StructureDefinition/zib-Medication-MedicationTreatment">
					<valueIdentifier>
						<system value="urn:oid:2.16.840.1.113883.2.4.3.11.999.77.1.1"/>
						<value value="MBH_413_6"/>
					</valueIdentifier>
				</extension>
				<identifier>
					<system value="urn:oid:2.16.840.1.113883.2.4.3.11.999.77.16076005.1"/>
					<value value="MBH_413_6_MA_1"/>
				</identifier>
				<intent value="order"/>
				<category>
					<coding>
						<system value="http://snomed.info/sct"/>
						<code value="16076005"/>
						<display value="Prescription (procedure)"/>
					</coding>
				</category>
				<medicationCodeableConcept>
					<coding>
						<system value="urn:oid:2.16.840.1.113883.2.4.4.10"/>
						<code value="67016"/>
					</coding>
					<text value="Waterstofperoxide 30MG/ML"/>
				</medicationCodeableConcept>
				<subject>
					<reference value="urn:uuid:B1963C77-A79C-11E8-1753-09173F13E4C5"/>
					<display value="R. XXX_Strengersz"/>
				</subject>
				<authoredOn value="2018-08-16T09:35:00+02:00"/>
				<requester>
					<extension url="http://nictiz.nl/fhir/StructureDefinition/zib-MedicationAgreement-RequesterRole">
						<valueReference>
							<reference value="urn:uuid:B1963C96-A79C-11E8-1753-09173F13E4C5"/>
							<display value="Peter van Pulver || Huisartsen, niet nader gespecificeerd || Huisartsenpraktijk Pulver &amp; Partners"/>
						</valueReference>
					</extension>
					<agent>
						<reference value="urn:oid:2.16.528.1.1007.3.1.000001111"/>
						<display value="Peter van Pulver"/>
					</agent>
				</requester>
				<reasonCode>
					<coding>
						<system value="http://snomed.info/sct"/>
						<code value="266709005"/>
					</coding>
					<text value="Starten medicamenteuze behandeling"/>
				</reasonCode>
				<dosageInstruction>
					<sequence value="1"/>
					<text value="Vanaf T, gedurende 14 dagen, 2x per dag 10 tot 15 ml, Eerst oplossen in water, mond spoelen, daarna uitspugen"/>
					<additionalInstruction>
						<coding>
							<system value="https://referentiemodel.nhg.org/tabellen/nhg-tabel-25-gebruiksvoorschrift#aanvullend-numeriek"/>
							<code value="27"/>
						</coding>
						<text value="Eerst oplossen in water"/>
					</additionalInstruction>
					<additionalInstruction>
						<coding>
							<system value="https://referentiemodel.nhg.org/tabellen/nhg-tabel-25-gebruiksvoorschrift#aanvullend-numeriek"/>
							<code value="69"/>
						</coding>
						<text value="mond spoelen, daarna uitspugen"/>
					</additionalInstruction>
					<timing>
						<repeat>
							<frequency value="2"/>
							<period value="1"/>
							<periodUnit value="d"/>
						</repeat>
					</timing>
					<route>
						<coding>
							<system value="urn:oid:2.16.840.1.113883.2.4.4.9"/>
							<code value="1"/>
						</coding>
						<text value="niet van toepassing"/>
					</route>
					<doseRange>
						<low>
							<value value="10"/>
							<unit value="milliliter"/>
							<system value="urn:oid:2.16.840.1.113883.2.4.4.1.900.2"/>
							<code value="233"/>
						</low>
						<high>
							<value value="15"/>
							<unit value="milliliter"/>
							<system value="urn:oid:2.16.840.1.113883.2.4.4.1.900.2"/>
							<code value="233"/>
						</high>
					</doseRange>
				</dosageInstruction>
			</MedicationRequest>
		</resource>
	</entry>
	<entry>
		<fullUrl value="urn:uuid:B1963CB9-A79C-11E8-1753-09173F13E4C5"/>
		<resource>
			<MedicationRequest>
				<meta>
					<profile value="http://nictiz.nl/fhir/StructureDefinition/zib-MedicationAgreement"/>
				</meta>
				<extension url="http://nictiz.nl/fhir/StructureDefinition/zib-Medication-PeriodOfUse">
					<valuePeriod>
						<start value="2018-08-16T00:00:00+02:00"/>
					</valuePeriod>
				</extension>
				<extension url="http://nictiz.nl/fhir/StructureDefinition/zib-MedicationUse-Duration">
					<valueDuration>
						<value value="14"/>
						<unit value="dag"/>
						<system value="http://unitsofmeasure.org"/>
						<code value="d"/>
					</valueDuration>
				</extension>
				<extension url="http://nictiz.nl/fhir/StructureDefinition/zib-Medication-MedicationTreatment">
					<valueIdentifier>
						<system value="urn:oid:2.16.840.1.113883.2.4.3.11.999.77.1.1"/>
						<value value="MBH_413_7"/>
					</valueIdentifier>
				</extension>
				<identifier>
					<system value="urn:oid:2.16.840.1.113883.2.4.3.11.999.77.16076005.1"/>
					<value value="MBH_413_7_MA_1"/>
				</identifier>
				<intent value="order"/>
				<category>
					<coding>
						<system value="http://snomed.info/sct"/>
						<code value="16076005"/>
						<display value="Prescription (procedure)"/>
					</coding>
				</category>
				<medicationCodeableConcept>
					<coding>
						<system value="urn:oid:2.16.840.1.113883.2.4.4.10"/>
						<code value="34851"/>
					</coding>
					<text value="Insuline isofaan injsusp 100ie/ml patr 3ml"/>
				</medicationCodeableConcept>
				<subject>
					<reference value="urn:uuid:B1963C77-A79C-11E8-1753-09173F13E4C5"/>
					<display value="R. XXX_Strengersz"/>
				</subject>
				<authoredOn value="2018-08-16T09:35:00+02:00"/>
				<requester>
					<extension url="http://nictiz.nl/fhir/StructureDefinition/zib-MedicationAgreement-RequesterRole">
						<valueReference>
							<reference value="urn:uuid:B1963C96-A79C-11E8-1753-09173F13E4C5"/>
							<display value="Peter van Pulver || Huisartsen, niet nader gespecificeerd || Huisartsenpraktijk Pulver &amp; Partners"/>
						</valueReference>
					</extension>
					<agent>
						<reference value="urn:oid:2.16.528.1.1007.3.1.000001111"/>
						<display value="Peter van Pulver"/>
					</agent>
				</requester>
				<reasonCode>
					<coding>
						<system value="http://snomed.info/sct"/>
						<code value="266709005"/>
					</coding>
					<text value="Starten medicamenteuze behandeling"/>
				</reasonCode>
				<dosageInstruction>
					<sequence value="1"/>
					<text value="Vanaf T, gedurende 14 dagen, elke dag om 08:00, 14:00 en 20:00 uur 16IE"/>
					<timing>
						<repeat>
							<timeOfDay value="08:00:00"/>
							<timeOfDay value="14:00:00"/>
							<timeOfDay value="20:00:00"/>
						</repeat>
					</timing>
					<route>
						<coding>
							<system value="urn:oid:2.16.840.1.113883.2.4.4.9"/>
							<code value="21"/>
						</coding>
						<text value="subcutaan"/>
					</route>
					<doseQuantity>
						<value value="16"/>
						<unit value="internationale eenheid"/>
						<system value="urn:oid:2.16.840.1.113883.2.4.4.1.900.2"/>
						<code value="217"/>
					</doseQuantity>
				</dosageInstruction>
			</MedicationRequest>
		</resource>
	</entry>
	<entry>
		<fullUrl value="urn:uuid:B1963CBE-A79C-11E8-1753-09173F13E4C5"/>
		<resource>
			<MedicationRequest>
				<meta>
					<profile value="http://nictiz.nl/fhir/StructureDefinition/zib-MedicationAgreement"/>
				</meta>
				<extension url="http://nictiz.nl/fhir/StructureDefinition/zib-Medication-PeriodOfUse">
					<valuePeriod>
						<start value="2018-08-16T00:00:00+02:00"/>
					</valuePeriod>
				</extension>
				<extension url="http://nictiz.nl/fhir/StructureDefinition/zib-MedicationUse-Duration">
					<valueDuration>
						<value value="10"/>
						<unit value="week"/>
						<system value="http://unitsofmeasure.org"/>
						<code value="wk"/>
					</valueDuration>
				</extension>
				<extension url="http://nictiz.nl/fhir/StructureDefinition/zib-Medication-MedicationTreatment">
					<valueIdentifier>
						<system value="urn:oid:2.16.840.1.113883.2.4.3.11.999.77.1.1"/>
						<value value="MBH_413_8"/>
					</valueIdentifier>
				</extension>
				<identifier>
					<system value="urn:oid:2.16.840.1.113883.2.4.3.11.999.77.16076005.1"/>
					<value value="MBH_413_8_MA_1"/>
				</identifier>
				<intent value="order"/>
				<category>
					<coding>
						<system value="http://snomed.info/sct"/>
						<code value="16076005"/>
						<display value="Prescription (procedure)"/>
					</coding>
				</category>
				<medicationCodeableConcept>
					<coding>
						<system value="urn:oid:2.16.840.1.113883.2.4.4.10"/>
						<code value="55050"/>
					</coding>
					<text value="IMIQUIMOD 50MG/G CREME"/>
				</medicationCodeableConcept>
				<subject>
					<reference value="urn:uuid:B1963C77-A79C-11E8-1753-09173F13E4C5"/>
					<display value="R. XXX_Strengersz"/>
				</subject>
				<authoredOn value="2018-08-16T09:35:00+02:00"/>
				<requester>
					<extension url="http://nictiz.nl/fhir/StructureDefinition/zib-MedicationAgreement-RequesterRole">
						<valueReference>
							<reference value="urn:uuid:B1963C96-A79C-11E8-1753-09173F13E4C5"/>
							<display value="Peter van Pulver || Huisartsen, niet nader gespecificeerd || Huisartsenpraktijk Pulver &amp; Partners"/>
						</valueReference>
					</extension>
					<agent>
						<reference value="urn:oid:2.16.528.1.1007.3.1.000001111"/>
						<display value="Peter van Pulver"/>
					</agent>
				</requester>
				<reasonCode>
					<coding>
						<system value="http://snomed.info/sct"/>
						<code value="266709005"/>
					</coding>
					<text value="Starten medicamenteuze behandeling"/>
				</reasonCode>
				<dosageInstruction>
					<sequence value="1"/>
					<text value="Vanaf T, gedurende 10 weken, op maandag, woensdag en vrijdag, voor de nacht aanbrengen"/>
					<additionalInstruction>
						<coding>
							<system value="https://referentiemodel.nhg.org/tabellen/nhg-tabel-25-gebruiksvoorschrift#aanvullend-numeriek"/>
							<code value="1128"/>
						</coding>
						<text value="voor de nacht"/>
					</additionalInstruction>
					<additionalInstruction>
						<coding>
							<system value="https://referentiemodel.nhg.org/tabellen/nhg-tabel-25-gebruiksvoorschrift#aanvullend-numeriek"/>
							<code value="1018"/>
						</coding>
						<text value="aanbrengen"/>
					</additionalInstruction>
					<timing>
						<repeat>
							<dayOfWeek value="mon"/>
							<dayOfWeek value="wed"/>
							<dayOfWeek value="fri"/>
						</repeat>
					</timing>
					<route>
						<coding>
							<system value="urn:oid:2.16.840.1.113883.2.4.4.9"/>
							<code value="21"/>
						</coding>
						<text value="subcutaan"/>
					</route>
				</dosageInstruction>
			</MedicationRequest>
		</resource>
	</entry>
	<entry>
		<fullUrl value="urn:uuid:B1963CC3-A79C-11E8-1753-09173F13E4C5"/>
		<resource>
			<MedicationRequest>
				<meta>
					<profile value="http://nictiz.nl/fhir/StructureDefinition/zib-MedicationAgreement"/>
				</meta>
				<extension url="http://nictiz.nl/fhir/StructureDefinition/zib-Medication-PeriodOfUse">
					<valuePeriod>
						<start value="2018-08-16T00:00:00+02:00"/>
					</valuePeriod>
				</extension>
				<extension url="http://nictiz.nl/fhir/StructureDefinition/zib-Medication-MedicationTreatment">
					<valueIdentifier>
						<system value="urn:oid:2.16.840.1.113883.2.4.3.11.999.77.1.1"/>
						<value value="MBH_413_9"/>
					</valueIdentifier>
				</extension>
				<identifier>
					<system value="urn:oid:2.16.840.1.113883.2.4.3.11.999.77.16076005.1"/>
					<value value="MBH_413_9_MA_1"/>
				</identifier>
				<intent value="order"/>
				<category>
					<coding>
						<system value="http://snomed.info/sct"/>
						<code value="16076005"/>
						<display value="Prescription (procedure)"/>
					</coding>
				</category>
				<medicationCodeableConcept>
					<coding>
						<system value="urn:oid:2.16.840.1.113883.2.4.4.10"/>
						<code value="77038"/>
					</coding>
					<text value="EZETIMIB/SIMVASTATINE 10/20"/>
				</medicationCodeableConcept>
				<subject>
					<reference value="urn:uuid:B1963C77-A79C-11E8-1753-09173F13E4C5"/>
					<display value="R. XXX_Strengersz"/>
				</subject>
				<authoredOn value="2018-08-16T09:35:00+02:00"/>
				<requester>
					<extension url="http://nictiz.nl/fhir/StructureDefinition/zib-MedicationAgreement-RequesterRole">
						<valueReference>
							<reference value="urn:uuid:B1963C96-A79C-11E8-1753-09173F13E4C5"/>
							<display value="Peter van Pulver || Huisartsen, niet nader gespecificeerd || Huisartsenpraktijk Pulver &amp; Partners"/>
						</valueReference>
					</extension>
					<agent>
						<reference value="urn:oid:2.16.528.1.1007.3.1.000001111"/>
						<display value="Peter van Pulver"/>
					</agent>
				</requester>
				<reasonCode>
					<coding>
						<system value="http://snomed.info/sct"/>
						<code value="266709005"/>
					</coding>
					<text value="Starten medicamenteuze behandeling"/>
				</reasonCode>
				<dosageInstruction>
					<sequence value="1"/>
					<text value="Vanaf T, 1 maal daags 1 stuk ’s avonds innemen, oraal"/>
					<timing>
						<repeat>
							<frequency value="1"/>
							<period value="1"/>
							<periodUnit value="d"/>
							<when value="EVE"/>
						</repeat>
					</timing>
					<route>
						<coding>
							<system value="urn:oid:2.16.840.1.113883.2.4.4.9"/>
							<code value="9"/>
						</coding>
						<text value="oraal"/>
					</route>
					<doseQuantity>
						<value value="1"/>
						<unit value="stuk"/>
						<system value="urn:oid:2.16.840.1.113883.2.4.4.1.900.2"/>
						<code value="245"/>
					</doseQuantity>
				</dosageInstruction>
			</MedicationRequest>
		</resource>
	</entry>
	<entry>
		<fullUrl value="urn:uuid:B1963CC8-A79C-11E8-1753-09173F13E4C5"/>
		<resource>
			<MedicationRequest>
				<meta>
					<profile value="http://nictiz.nl/fhir/StructureDefinition/zib-MedicationAgreement"/>
				</meta>
				<extension url="http://nictiz.nl/fhir/StructureDefinition/zib-Medication-PeriodOfUse">
					<valuePeriod>
						<start value="2018-08-16T00:00:00+02:00"/>
					</valuePeriod>
				</extension>
				<extension url="http://nictiz.nl/fhir/StructureDefinition/zib-Medication-MedicationTreatment">
					<valueIdentifier>
						<system value="urn:oid:2.16.840.1.113883.2.4.3.11.999.77.1.1"/>
						<value value="MBH_413_10"/>
					</valueIdentifier>
				</extension>
				<extension url="http://nictiz.nl/fhir/StructureDefinition/zib-Medication-RepeatPeriodCyclicalSchedule">
					<valueDuration>
						<value value="28"/>
						<unit value="d"/>
						<system value="http://unitsofmeasure.org"/>
						<code value="d"/>
					</valueDuration>
				</extension>
				<identifier>
					<system value="urn:oid:2.16.840.1.113883.2.4.3.11.999.77.16076005.1"/>
					<value value="MBH_413_10_MA_1"/>
				</identifier>
				<intent value="order"/>
				<category>
					<coding>
						<system value="http://snomed.info/sct"/>
						<code value="16076005"/>
						<display value="Prescription (procedure)"/>
					</coding>
				</category>
				<medicationCodeableConcept>
					<coding>
						<system value="urn:oid:2.16.840.1.113883.2.4.4.10"/>
						<code value="16292"/>
					</coding>
					<text value="Ethinyl estradiol/desogestrel tablet 30/150ug (Marvelon)"/>
				</medicationCodeableConcept>
				<subject>
					<reference value="urn:uuid:B1963C77-A79C-11E8-1753-09173F13E4C5"/>
					<display value="R. XXX_Strengersz"/>
				</subject>
				<authoredOn value="2018-08-16T09:35:00+02:00"/>
				<requester>
					<extension url="http://nictiz.nl/fhir/StructureDefinition/zib-MedicationAgreement-RequesterRole">
						<valueReference>
							<reference value="urn:uuid:B1963C96-A79C-11E8-1753-09173F13E4C5"/>
							<display value="Peter van Pulver || Huisartsen, niet nader gespecificeerd || Huisartsenpraktijk Pulver &amp; Partners"/>
						</valueReference>
					</extension>
					<agent>
						<reference value="urn:oid:2.16.528.1.1007.3.1.000001111"/>
						<display value="Peter van Pulver"/>
					</agent>
				</requester>
				<reasonCode>
					<coding>
						<system value="http://snomed.info/sct"/>
						<code value="266709005"/>
					</coding>
					<text value="Starten medicamenteuze behandeling"/>
				</reasonCode>
				<dosageInstruction>
					<sequence value="1"/>
					<text value="Vanaf T, tot nader order, cyclus van 28 dagen: steeds 21 dagen 1 x per dag 1 tablet, dan 7 dagen niet"/>
					<timing>
						<repeat>
							<boundsDuration>
								<value value="21"/>
								<unit value="dag"/>
								<system value="http://unitsofmeasure.org"/>
								<code value="d"/>
							</boundsDuration>
							<frequency value="1"/>
							<period value="1"/>
							<periodUnit value="d"/>
						</repeat>
					</timing>
					<route>
						<coding>
							<system value="urn:oid:2.16.840.1.113883.2.4.4.9"/>
							<code value="9"/>
						</coding>
						<text value="oraal"/>
					</route>
					<doseQuantity>
						<value value="1"/>
						<unit value="stuk"/>
						<system value="urn:oid:2.16.840.1.113883.2.4.4.1.900.2"/>
						<code value="245"/>
					</doseQuantity>
				</dosageInstruction>
			</MedicationRequest>
		</resource>
	</entry>
	<entry>
		<fullUrl value="urn:uuid:B1963CCD-A79C-11E8-1753-09173F13E4C5"/>
		<resource>
			<MedicationRequest>
				<meta>
					<profile value="http://nictiz.nl/fhir/StructureDefinition/zib-MedicationAgreement"/>
				</meta>
				<extension url="http://nictiz.nl/fhir/StructureDefinition/zib-Medication-PeriodOfUse">
					<valuePeriod>
						<start value="2018-08-16T00:00:00+02:00"/>
					</valuePeriod>
				</extension>
				<extension url="http://nictiz.nl/fhir/StructureDefinition/zib-MedicationUse-Duration">
					<valueDuration>
						<value value="41"/>
						<unit value="dag"/>
						<system value="http://unitsofmeasure.org"/>
						<code value="d"/>
					</valueDuration>
				</extension>
				<extension url="http://nictiz.nl/fhir/StructureDefinition/zib-Medication-MedicationTreatment">
					<valueIdentifier>
						<system value="urn:oid:2.16.840.1.113883.2.4.3.11.999.77.1.1"/>
						<value value="MBH_413_11"/>
					</valueIdentifier>
				</extension>
				<identifier>
					<system value="urn:oid:2.16.840.1.113883.2.4.3.11.999.77.16076005.1"/>
					<value value="MBH_413_11_MA_1"/>
				</identifier>
				<intent value="order"/>
				<category>
					<coding>
						<system value="http://snomed.info/sct"/>
						<code value="16076005"/>
						<display value="Prescription (procedure)"/>
					</coding>
				</category>
				<medicationCodeableConcept>
					<coding>
						<system value="urn:oid:2.16.840.1.113883.2.4.4.10"/>
						<code value="16705"/>
					</coding>
					<text value="Fusidinezuur creme 20mg/g"/>
				</medicationCodeableConcept>
				<subject>
					<reference value="urn:uuid:B1963C77-A79C-11E8-1753-09173F13E4C5"/>
					<display value="R. XXX_Strengersz"/>
				</subject>
				<authoredOn value="2018-08-16T09:35:00+02:00"/>
				<requester>
					<extension url="http://nictiz.nl/fhir/StructureDefinition/zib-MedicationAgreement-RequesterRole">
						<valueReference>
							<reference value="urn:uuid:B1963C96-A79C-11E8-1753-09173F13E4C5"/>
							<display value="Peter van Pulver || Huisartsen, niet nader gespecificeerd || Huisartsenpraktijk Pulver &amp; Partners"/>
						</valueReference>
					</extension>
					<agent>
						<reference value="urn:oid:2.16.528.1.1007.3.1.000001111"/>
						<display value="Peter van Pulver"/>
					</agent>
				</requester>
				<reasonCode>
					<coding>
						<system value="http://snomed.info/sct"/>
						<code value="266709005"/>
					</coding>
					<text value="Starten medicamenteuze behandeling"/>
				</reasonCode>
				<dosageInstruction>
					<sequence value="1"/>
					<text value="Vanaf T, gedurende 41 dagen, eerst 2 weken 3gr per dag, dan 3 weken 2gr per dag, dan 6 dagen 1gr per dag, dun aanbrengen, cutaan"/>
					<additionalInstruction>
						<coding>
							<system value="https://referentiemodel.nhg.org/tabellen/nhg-tabel-25-gebruiksvoorschrift#aanvullend-numeriek"/>
							<code value="1033"/>
						</coding>
						<text value="dun aanbrengen"/>
					</additionalInstruction>
					<timing>
						<repeat>
							<boundsDuration>
								<value value="2"/>
								<unit value="week"/>
								<system value="http://unitsofmeasure.org"/>
								<code value="wk"/>
							</boundsDuration>
							<frequency value="1"/>
							<period value="1"/>
							<periodUnit value="d"/>
						</repeat>
					</timing>
					<route>
						<coding>
							<system value="urn:oid:2.16.840.1.113883.2.4.4.9"/>
							<code value="7"/>
						</coding>
						<text value="cutaan"/>
					</route>
					<doseQuantity>
						<value value="3"/>
						<unit value="gram"/>
						<system value="urn:oid:2.16.840.1.113883.2.4.4.1.900.2"/>
						<code value="215"/>
					</doseQuantity>
				</dosageInstruction>
				<dosageInstruction>
					<sequence value="2"/>
					<text value="Vanaf T, gedurende 41 dagen, eerst 2 weken 3gr per dag, dan 3 weken 2gr per dag, dan 6 dagen 1gr per dag, dun aanbrengen, cutaan"/>
					<additionalInstruction>
						<coding>
							<system value="https://referentiemodel.nhg.org/tabellen/nhg-tabel-25-gebruiksvoorschrift#aanvullend-numeriek"/>
							<code value="1033"/>
						</coding>
						<text value="dun aanbrengen"/>
					</additionalInstruction>
					<timing>
						<repeat>
							<boundsDuration>
								<value value="3"/>
								<unit value="week"/>
								<system value="http://unitsofmeasure.org"/>
								<code value="wk"/>
							</boundsDuration>
							<frequency value="1"/>
							<period value="1"/>
							<periodUnit value="d"/>
						</repeat>
					</timing>
					<route>
						<coding>
							<system value="urn:oid:2.16.840.1.113883.2.4.4.9"/>
							<code value="7"/>
						</coding>
						<text value="cutaan"/>
					</route>
					<doseQuantity>
						<value value="2"/>
						<unit value="gram"/>
						<system value="urn:oid:2.16.840.1.113883.2.4.4.1.900.2"/>
						<code value="215"/>
					</doseQuantity>
				</dosageInstruction>
				<dosageInstruction>
					<sequence value="3"/>
					<text value="Vanaf T, gedurende 41 dagen, eerst 2 weken 3gr per dag, dan 3 weken 2gr per dag, dan 6 dagen 1gr per dag, dun aanbrengen, cutaan"/>
					<additionalInstruction>
						<coding>
							<system value="https://referentiemodel.nhg.org/tabellen/nhg-tabel-25-gebruiksvoorschrift#aanvullend-numeriek"/>
							<code value="1033"/>
						</coding>
						<text value="dun aanbrengen"/>
					</additionalInstruction>
					<timing>
						<repeat>
							<boundsDuration>
								<value value="6"/>
								<unit value="dag"/>
								<system value="http://unitsofmeasure.org"/>
								<code value="d"/>
							</boundsDuration>
							<frequency value="1"/>
							<period value="1"/>
							<periodUnit value="d"/>
						</repeat>
					</timing>
					<route>
						<coding>
							<system value="urn:oid:2.16.840.1.113883.2.4.4.9"/>
							<code value="7"/>
						</coding>
						<text value="cutaan"/>
					</route>
					<doseQuantity>
						<value value="1"/>
						<unit value="gram"/>
						<system value="urn:oid:2.16.840.1.113883.2.4.4.1.900.2"/>
						<code value="215"/>
					</doseQuantity>
				</dosageInstruction>
			</MedicationRequest>
		</resource>
	</entry>
	<entry>
		<fullUrl value="urn:uuid:B1963CD2-A79C-11E8-1753-09173F13E4C5"/>
		<resource>
			<MedicationRequest>
				<meta>
					<profile value="http://nictiz.nl/fhir/StructureDefinition/zib-MedicationAgreement"/>
				</meta>
				<extension url="http://nictiz.nl/fhir/StructureDefinition/zib-Medication-PeriodOfUse">
					<valuePeriod>
						<start value="2018-08-16T00:00:00+02:00"/>
					</valuePeriod>
				</extension>
				<extension url="http://nictiz.nl/fhir/StructureDefinition/zib-MedicationUse-Duration">
					<valueDuration>
						<value value="3"/>
						<unit value="week"/>
						<system value="http://unitsofmeasure.org"/>
						<code value="wk"/>
					</valueDuration>
				</extension>
				<extension url="http://nictiz.nl/fhir/StructureDefinition/zib-Medication-MedicationTreatment">
					<valueIdentifier>
						<system value="urn:oid:2.16.840.1.113883.2.4.3.11.999.77.1.1"/>
						<value value="MBH_413_12"/>
					</valueIdentifier>
				</extension>
				<extension url="http://nictiz.nl/fhir/StructureDefinition/zib-Medication-RepeatPeriodCyclicalSchedule">
					<valueDuration>
						<value value="28"/>
						<unit value="d"/>
						<system value="http://unitsofmeasure.org"/>
						<code value="d"/>
					</valueDuration>
				</extension>
				<identifier>
					<system value="urn:oid:2.16.840.1.113883.2.4.3.11.999.77.16076005.1"/>
					<value value="MBH_413_12_MA_1"/>
				</identifier>
				<intent value="order"/>
				<category>
					<coding>
						<system value="http://snomed.info/sct"/>
						<code value="16076005"/>
						<display value="Prescription (procedure)"/>
					</coding>
				</category>
				<medicationCodeableConcept>
					<coding>
						<system value="urn:oid:2.16.840.1.113883.2.4.4.10"/>
						<code value="42773"/>
					</coding>
					<text value="CODEINE TABLET 10MG (FOSFAAT)"/>
				</medicationCodeableConcept>
				<subject>
					<reference value="urn:uuid:B1963C77-A79C-11E8-1753-09173F13E4C5"/>
					<display value="R. XXX_Strengersz"/>
				</subject>
				<authoredOn value="2018-08-16T11:25:00+02:00"/>
				<requester>
					<extension url="http://nictiz.nl/fhir/StructureDefinition/zib-MedicationAgreement-RequesterRole">
						<valueReference>
							<reference value="urn:uuid:B1963C96-A79C-11E8-1753-09173F13E4C5"/>
							<display value="Peter van Pulver || Huisartsen, niet nader gespecificeerd || Huisartsenpraktijk Pulver &amp; Partners"/>
						</valueReference>
					</extension>
					<agent>
						<reference value="urn:oid:2.16.528.1.1007.3.1.000001111"/>
						<display value="Peter van Pulver"/>
					</agent>
				</requester>
				<reasonCode>
					<coding>
						<system value="http://snomed.info/sct"/>
						<code value="266709005"/>
					</coding>
					<text value="Starten medicamenteuze behandeling"/>
				</reasonCode>
				<dosageInstruction>
					<sequence value="1"/>
					<text value="Vanaf T, gedurende 3 weken, iedere 3 à 4 uur 1 stuk bij hoest, maximaal 6 stuks per dag, oraal"/>
					<timing>
						<repeat>
							<frequency value="3"/>
							<frequencyMax value="4"/>
							<period value="1"/>
							<periodUnit value="h"/>
						</repeat>
					</timing>
					<asNeededCodeableConcept>
						<coding>
							<system value="https://referentiemodel.nhg.org/tabellen/nhg-tabel-25-gebruiksvoorschrift#aanvullend-numeriek"/>
							<code value="1387"/>
							<display value="bij hoest"/>
						</coding>
					</asNeededCodeableConcept>
					<route>
						<coding>
							<system value="urn:oid:2.16.840.1.113883.2.4.4.9"/>
							<code value="9"/>
						</coding>
						<text value="oraal"/>
					</route>
					<doseQuantity>
						<value value="1"/>
						<unit value="stuk"/>
						<system value="urn:oid:2.16.840.1.113883.2.4.4.1.900.2"/>
						<code value="245"/>
					</doseQuantity>
					<maxDosePerPeriod>
						<numerator>
							<value value="6"/>
							<unit value="stuk"/>
							<system value="urn:oid:2.16.840.1.113883.2.4.4.1.900.2"/>
							<code value="245"/>
						</numerator>
						<denominator>
							<value value="1"/>
							<unit value="dag"/>
							<system value="http://unitsofmeasure.org"/>
							<code value="d"/>
						</denominator>
					</maxDosePerPeriod>
				</dosageInstruction>
			</MedicationRequest>
		</resource>
	</entry>
	<entry>
		<fullUrl value="urn:uuid:B1963CD7-A79C-11E8-1753-09173F13E4C5"/>
		<resource>
			<MedicationRequest>
				<meta>
					<profile value="http://nictiz.nl/fhir/StructureDefinition/zib-MedicationAgreement"/>
				</meta>
				<extension url="http://nictiz.nl/fhir/StructureDefinition/zib-Medication-PeriodOfUse">
					<valuePeriod>
						<start value="2018-07-19T00:00:00+02:00"/>
					</valuePeriod>
				</extension>
				<extension url="http://nictiz.nl/fhir/StructureDefinition/zib-MedicationUse-Duration">
					<valueDuration>
						<value value="8"/>
						<unit value="dag"/>
						<system value="http://unitsofmeasure.org"/>
						<code value="d"/>
					</valueDuration>
				</extension>
				<extension url="http://nictiz.nl/fhir/StructureDefinition/zib-Medication-MedicationTreatment">
					<valueIdentifier>
						<system value="urn:oid:2.16.840.1.113883.2.4.3.11.999.77.1.1"/>
						<value value="MBH_413_13"/>
					</valueIdentifier>
				</extension>
				<identifier>
					<system value="urn:oid:2.16.840.1.113883.2.4.3.11.999.77.16076005.1"/>
					<value value="MBH_413_13_MA_1"/>
				</identifier>
				<intent value="order"/>
				<category>
					<coding>
						<system value="http://snomed.info/sct"/>
						<code value="16076005"/>
						<display value="Prescription (procedure)"/>
					</coding>
				</category>
				<medicationCodeableConcept>
					<coding>
						<system value="urn:oid:2.16.840.1.113883.2.4.4.10"/>
						<code value="94692"/>
					</coding>
					<text value="MORFINE INFVLST 5MG/ML CAS 100ML"/>
				</medicationCodeableConcept>
				<subject>
					<reference value="urn:uuid:B1963C77-A79C-11E8-1753-09173F13E4C5"/>
					<display value="R. XXX_Strengersz"/>
				</subject>
				<authoredOn value="2018-07-19T09:12:00+02:00"/>
				<requester>
					<extension url="http://nictiz.nl/fhir/StructureDefinition/zib-MedicationAgreement-RequesterRole">
						<valueReference>
							<reference value="urn:uuid:B1963C96-A79C-11E8-1753-09173F13E4C5"/>
							<display value="Peter van Pulver || Huisartsen, niet nader gespecificeerd || Huisartsenpraktijk Pulver &amp; Partners"/>
						</valueReference>
					</extension>
					<agent>
						<reference value="urn:oid:2.16.528.1.1007.3.1.000001111"/>
						<display value="Peter van Pulver"/>
					</agent>
				</requester>
				<reasonCode>
					<coding>
						<system value="http://snomed.info/sct"/>
						<code value="266709005"/>
					</coding>
					<text value="Starten medicamenteuze behandeling"/>
				</reasonCode>
				<dosageInstruction>
					<sequence value="1"/>
					<text value="Vanaf T-28, gedurende 8 dagen, 0.5 ml per uur parenteraal."/>
					<route>
						<coding>
							<system value="urn:oid:2.16.840.1.113883.2.4.4.9"/>
							<code value="10"/>
						</coding>
						<text value="parenteraal"/>
					</route>
					<rateRatio>
						<numerator>
							<value value="0.5"/>
							<unit value="milliliter"/>
							<system value="urn:oid:2.16.840.1.113883.2.4.4.1.900.2"/>
							<code value="233"/>
						</numerator>
						<denominator>
							<value value="1"/>
							<unit value="uur"/>
							<system value="http://unitsofmeasure.org"/>
							<code value="h"/>
						</denominator>
					</rateRatio>
				</dosageInstruction>
			</MedicationRequest>
		</resource>
	</entry>
	<entry>
		<fullUrl value="urn:uuid:B1963CDC-A79C-11E8-1753-09173F13E4C5"/>
		<resource>
			<MedicationRequest>
				<meta>
					<profile value="http://nictiz.nl/fhir/StructureDefinition/zib-MedicationAgreement"/>
				</meta>
				<extension url="http://nictiz.nl/fhir/StructureDefinition/zib-Medication-PeriodOfUse">
					<valuePeriod>
						<start value="2018-07-27T00:00:00+02:00"/>
					</valuePeriod>
				</extension>
				<extension url="http://nictiz.nl/fhir/StructureDefinition/zib-MedicationUse-Duration">
					<valueDuration>
						<value value="8"/>
						<unit value="dag"/>
						<system value="http://unitsofmeasure.org"/>
						<code value="d"/>
					</valueDuration>
				</extension>
				<extension url="http://nictiz.nl/fhir/StructureDefinition/zib-Medication-MedicationTreatment">
					<valueIdentifier>
						<system value="urn:oid:2.16.840.1.113883.2.4.3.11.999.77.1.1"/>
						<value value="MBH_413_13"/>
					</valueIdentifier>
				</extension>
				<identifier>
					<system value="urn:oid:2.16.840.1.113883.2.4.3.11.999.77.16076005.1"/>
					<value value="MBH_413_13_MA_2"/>
				</identifier>
				<intent value="order"/>
				<category>
					<coding>
						<system value="http://snomed.info/sct"/>
						<code value="16076005"/>
						<display value="Prescription (procedure)"/>
					</coding>
				</category>
				<medicationCodeableConcept>
					<coding>
						<system value="urn:oid:2.16.840.1.113883.2.4.4.10"/>
						<code value="94692"/>
					</coding>
					<text value="MORFINE INFVLST 5MG/ML CAS 100ML"/>
				</medicationCodeableConcept>
				<subject>
					<reference value="urn:uuid:B1963C77-A79C-11E8-1753-09173F13E4C5"/>
					<display value="R. XXX_Strengersz"/>
				</subject>
				<authoredOn value="2018-07-27T11:25:00+02:00"/>
				<requester>
					<extension url="http://nictiz.nl/fhir/StructureDefinition/zib-MedicationAgreement-RequesterRole">
						<valueReference>
							<reference value="urn:uuid:B1963C96-A79C-11E8-1753-09173F13E4C5"/>
							<display value="Peter van Pulver || Huisartsen, niet nader gespecificeerd || Huisartsenpraktijk Pulver &amp; Partners"/>
						</valueReference>
					</extension>
					<agent>
						<reference value="urn:oid:2.16.528.1.1007.3.1.000001111"/>
						<display value="Peter van Pulver"/>
					</agent>
				</requester>
				<reasonCode>
					<coding>
						<system value="http://snomed.info/sct"/>
						<code value="266709005"/>
					</coding>
					<text value="Starten medicamenteuze behandeling"/>
				</reasonCode>
				<dosageInstruction>
					<sequence value="1"/>
					<text value="Vanaf T-28, gedurende 8 dagen, 0.5 ml per uur parenteraal."/>
					<route>
						<coding>
							<system value="urn:oid:2.16.840.1.113883.2.4.4.9"/>
							<code value="10"/>
						</coding>
						<text value="parenteraal"/>
					</route>
					<rateRange>
						<low>
							<value value="0.2"/>
							<unit value="ml/h"/>
							<system value="http://unitsofmeasure.org"/>
							<code value="ml/h"/>
						</low>
						<high>
							<value value="0.5"/>
							<unit value="ml/h"/>
							<system value="http://unitsofmeasure.org"/>
							<code value="ml/h"/>
						</high>
					</rateRange>
				</dosageInstruction>
			</MedicationRequest>
		</resource>
	</entry>
	<entry>
		<fullUrl value="urn:uuid:B1963CE1-A79C-11E8-1753-09173F13E4C5"/>
		<resource>
			<MedicationRequest>
				<meta>
					<profile value="http://nictiz.nl/fhir/StructureDefinition/zib-MedicationAgreement"/>
				</meta>
				<extension url="http://nictiz.nl/fhir/StructureDefinition/zib-Medication-PeriodOfUse">
					<valuePeriod>
						<start value="2018-08-16T00:00:00+02:00"/>
					</valuePeriod>
				</extension>
				<extension url="http://nictiz.nl/fhir/StructureDefinition/zib-Medication-MedicationTreatment">
					<valueIdentifier>
						<system value="urn:oid:2.16.840.1.113883.2.4.3.11.999.77.1.1"/>
						<value value="MBH_413_14"/>
					</valueIdentifier>
				</extension>
				<identifier>
					<system value="urn:oid:2.16.840.1.113883.2.4.3.11.999.77.16076005.1"/>
					<value value="MBH_413_14_MA_1"/>
				</identifier>
				<intent value="order"/>
				<category>
					<coding>
						<system value="http://snomed.info/sct"/>
						<code value="16076005"/>
						<display value="Prescription (procedure)"/>
					</coding>
				</category>
				<medicationCodeableConcept>
					<coding>
						<system value="urn:oid:2.16.840.1.113883.2.4.4.10"/>
						<code value="44520"/>
					</coding>
					<text value="NITROGLYCERINE PLEISTER 5MG/24UUR (DEPONIT T)"/>
				</medicationCodeableConcept>
				<subject>
					<reference value="urn:uuid:B1963C77-A79C-11E8-1753-09173F13E4C5"/>
					<display value="R. XXX_Strengersz"/>
				</subject>
				<authoredOn value="2018-08-16T11:25:00+02:00"/>
				<requester>
					<extension url="http://nictiz.nl/fhir/StructureDefinition/zib-MedicationAgreement-RequesterRole">
						<valueReference>
							<reference value="urn:uuid:B1963C96-A79C-11E8-1753-09173F13E4C5"/>
							<display value="Peter van Pulver || Huisartsen, niet nader gespecificeerd || Huisartsenpraktijk Pulver &amp; Partners"/>
						</valueReference>
					</extension>
					<agent>
						<reference value="urn:oid:2.16.528.1.1007.3.1.000001111"/>
						<display value="Peter van Pulver"/>
					</agent>
				</requester>
				<reasonCode>
					<coding>
						<system value="http://snomed.info/sct"/>
						<code value="266709005"/>
					</coding>
					<text value="Starten medicamenteuze behandeling"/>
				</reasonCode>
				<dosageInstruction>
					<sequence value="1"/>
					<text value="Vanaf T, tot nader order, eenmaal daags 1 pleister aanbrengen gedurende 16 uur (daarna 8 uur geen pleister), transdermaal"/>
					<timing>
						<repeat>
							<duration value="16"/>
							<durationUnit value="h"/>
							<frequency value="1"/>
							<period value="1"/>
							<periodUnit value="d"/>
						</repeat>
					</timing>
					<route>
						<coding>
							<system value="urn:oid:2.16.840.1.113883.2.4.4.9"/>
							<code value="58"/>
						</coding>
						<text value="transdermaal"/>
					</route>
					<doseQuantity>
						<value value="1"/>
						<unit value="stuk"/>
						<system value="urn:oid:2.16.840.1.113883.2.4.4.1.900.2"/>
						<code value="245"/>
					</doseQuantity>
				</dosageInstruction>
			</MedicationRequest>
		</resource>
	</entry>
	<entry>
		<fullUrl value="urn:uuid:B1963CE6-A79C-11E8-1753-09173F13E4C5"/>
		<resource>
			<MedicationRequest>
				<meta>
					<profile value="http://nictiz.nl/fhir/StructureDefinition/zib-MedicationAgreement"/>
				</meta>
				<extension url="http://nictiz.nl/fhir/StructureDefinition/zib-Medication-PeriodOfUse">
					<valuePeriod>
						<start value="2018-08-16T00:00:00+02:00"/>
					</valuePeriod>
				</extension>
				<extension url="http://nictiz.nl/fhir/StructureDefinition/zib-MedicationUse-Duration">
					<valueDuration>
						<value value="4"/>
						<unit value="dag"/>
						<system value="http://unitsofmeasure.org"/>
						<code value="d"/>
					</valueDuration>
				</extension>
				<extension url="http://nictiz.nl/fhir/StructureDefinition/zib-Medication-MedicationTreatment">
					<valueIdentifier>
						<system value="urn:oid:2.16.840.1.113883.2.4.3.11.999.77.1.1"/>
						<value value="MBH_413_15"/>
					</valueIdentifier>
				</extension>
				<identifier>
					<system value="urn:oid:2.16.840.1.113883.2.4.3.11.999.77.16076005.1"/>
					<value value="MBH_413_15_MA_1"/>
				</identifier>
				<intent value="order"/>
				<category>
					<coding>
						<system value="http://snomed.info/sct"/>
						<code value="16076005"/>
						<display value="Prescription (procedure)"/>
					</coding>
				</category>
				<medicationReference>
					<reference value="urn:uuid:B1963C98-A79C-11E8-1753-09173F13E4C5"/>
					<display value="Haparine 100 ie= 10 ml"/>
				</medicationReference>
				<subject>
					<reference value="urn:uuid:B1963C77-A79C-11E8-1753-09173F13E4C5"/>
					<display value="R. XXX_Strengersz"/>
				</subject>
				<authoredOn value="2018-08-16T09:35:00+02:00"/>
				<requester>
					<extension url="http://nictiz.nl/fhir/StructureDefinition/zib-MedicationAgreement-RequesterRole">
						<valueReference>
							<reference value="urn:uuid:B1963C96-A79C-11E8-1753-09173F13E4C5"/>
							<display value="Peter van Pulver || Huisartsen, niet nader gespecificeerd || Huisartsenpraktijk Pulver &amp; Partners"/>
						</valueReference>
					</extension>
					<agent>
						<reference value="urn:oid:2.16.528.1.1007.3.1.000001111"/>
						<display value="Peter van Pulver"/>
					</agent>
				</requester>
				<reasonCode>
					<coding>
						<system value="http://snomed.info/sct"/>
						<code value="266709005"/>
					</coding>
					<text value="Starten medicamenteuze behandeling"/>
				</reasonCode>
				<dosageInstruction>
					<sequence value="1"/>
					<text value="Vanaf T, gedurende 4 dagen, 2 maal per dag 10 ml, parenteraal"/>
					<timing>
						<repeat>
							<frequency value="2"/>
							<period value="1"/>
							<periodUnit value="d"/>
						</repeat>
					</timing>
					<route>
						<coding>
							<system value="urn:oid:2.16.840.1.113883.2.4.4.9"/>
							<code value="10"/>
						</coding>
						<text value="parenteraal"/>
					</route>
					<doseQuantity>
						<value value="10"/>
						<unit value="milliliter"/>
						<system value="urn:oid:2.16.840.1.113883.2.4.4.1.900.2"/>
						<code value="233"/>
					</doseQuantity>
				</dosageInstruction>
			</MedicationRequest>
		</resource>
	</entry>
</Bundle>
